Timestamp (microseconds),Gyro X (°/s),Gyro Y (°/s),Gyro Z (°/s)
1660172553635681,1.0681315327688026,1.6174563210497581,-0.7019150072480898
1660172553651681,2.166781109330941,1.3122758831159445,-0.8850232700083325
1660172553667680,4.303044174868319,2.105745021744042,-0.9460593575952316
1660172553683680,2.655069810025225,0.7019150072480898,-0.5798428320745188
1660172553699680,-2.04470893415737,-0.15259021896690683,-0.45777065690094787
1660172553715680,-0.5188067444876197,-0.03051804379333589,-0.9460593575952316
1660172553731680,1.0681315327688026,0.03051804379333589,-2.288853284504512
1660172553747679,2.5940337224383256,0.9460593575952316,-1.1291676203554744
1660172553763679,1.6784924086366573,1.1902037079423735,-1.739528496223329
1660172553779679,1.4343480582895154,0.8239871824216607,-1.1902037079423735
1660172553795679,1.3733119707026162,0.03051804379333589,-0.33569848172737693
1660172553811679,-0.7019150072480898,-0.8239871824216607,-0.45777065690094787
1660172553827678,-0.03051804379333589,-1.0070954451819034,1.0070954451819034
1660172553843678,1.4953841458761872,-0.03051804379333589,-0.7019150072480898
1660172553859678,2.105745021744042,0.8239871824216607,-1.8616006713969
1660172553875678,0.3967345693140487,1.3733119707026162,-0.8850232700083325
1660172553891677,-2.410925459678083,1.8005645838102282,-1.5564202334630863
1660172553907677,-1.0070954451819034,1.8005645838102282,-1.2512397955290453
1660172553923677,-0.6408789196611906,1.0070954451819034,-0.6408789196611906
1660172553939677,-0.2746623941404778,1.4953841458761872,-1.8005645838102282
1660172553955688,3.570611123826893,1.983672846570471,-1.6174563210497581
1660172553971688,2.532997634851654,-0.45777065690094787,-0.8850232700083325
1660172553987688,-2.288853284504512,-1.739528496223329,0.2746623941404778
1660172554003687,0.8239871824216607,0.213626306553806,-0.03051804379333589
1660172554019687,3.692683299000464,-0.2746623941404778,-1.8616006713969
1660172554035687,0.15259021896690683,-1.3122758831159445,-1.4343480582895154
1660172554051687,-2.166781109330941,0.5798428320745188,-1.4953841458761872
1660172554067687,1.3733119707026162,2.3498893720911838,-2.8381780727854675
1660172554083686,4.242008087281647,3.4485389486533222,-1.5564202334630863
1660172554099686,0.7629510948347615,2.288853284504512,0.09155413138023505
1660172554115686,-1.4953841458761872,0.7019150072480898,1.0681315327688026
1660172554131686,-0.33569848172737693,-0.33569848172737693,0.213626306553806
1660172554147686,0.5188067444876197,-0.5798428320745188,-2.105745021744042
1660172554163685,2.105745021744042,-0.213626306553806,-2.5940337224383256
1660172554179685,2.7771419851987957,0.2746623941404778,-1.6784924086366573
1660172554195685,1.0070954451819034,-0.09155413138023505,-1.2512397955290453
1660172554211685,-0.09155413138023505,1.1291676203554744,-0.7019150072480898
1660172554227685,2.3498893720911838,2.166781109330941,-0.9460593575952316
1660172554243684,2.3498893720911838,1.5564202334630863,-1.8616006713969
1660172554259684,1.1291676203554744,1.983672846570471,-0.5798428320745188
1660172554275695,-1.1902037079423735,0.8850232700083325,-0.03051804379333589
1660172554291695,-2.105745021744042,0.15259021896690683,-0.7629510948347615
1660172554307695,0.9460593575952316,0.45777065690094787,-1.1291676203554744
1660172554323695,1.2512397955290453,-0.45777065690094787,-1.739528496223329
1660172554339695,0.7629510948347615,-0.15259021896690683,-0.5188067444876197
1660172554355694,0.6408789196611906,-0.8239871824216607,-0.5798428320745188
1660172554371694,-0.2746623941404778,-0.8239871824216607,-0.8239871824216607
1660172554387694,-0.15259021896690683,0.09155413138023505,-0.3967345693140487
1660172554403694,0.45777065690094787,0.33569848172737693,-1.5564202334630863
1660172554419694,3.7537193865873633,2.4719615472647547,-1.4343480582895154
1660172554435693,2.8992141603723667,2.4719615472647547,-0.9460593575952316
1660172554451693,-1.0681315327688026,1.2512397955290453,-0.213626306553806
1660172554467693,-1.6784924086366573,0.2746623941404778,0.5188067444876197
1660172554483693,-1.2512397955290453,-1.0070954451819034,-0.5188067444876197
1660172554499693,2.04470893415737,-1.0070954451819034,-1.2512397955290453
1660172554515692,3.875791561760934,-0.213626306553806,-1.4343480582895154
1660172554531692,2.3498893720911838,-0.2746623941404778,-0.15259021896690683
1660172554547692,-0.33569848172737693,0.15259021896690683,-0.3967345693140487
1660172554563692,-0.5798428320745188,1.3733119707026162,-1.1291676203554744
1660172554579692,-0.5798428320745188,1.0070954451819034,-1.1291676203554744
1660172554595703,-0.8850232700083325,0.9460593575952316,-1.8616006713969
1660172554611703,1.8005645838102282,1.739528496223329,-1.983672846570471
1660172554627703,2.532997634851654,1.3122758831159445,-1.1902037079423735
1660172554643704,0.8239871824216607,1.0681315327688026,-0.5188067444876197
1660172554659704,-0.03051804379333589,-0.2746623941404778,-0.45777065690094787
1660172554675704,-0.8850232700083325,-1.0681315327688026,-1.0070954451819034
1660172554691704,-0.6408789196611906,-1.1291676203554744,-1.5564202334630863
1660172554707705,-0.213626306553806,-1.3122758831159445,-2.227817196917613
1660172554723705,1.0681315327688026,0.15259021896690683,-1.8005645838102282
1660172554739705,2.105745021744042,0.9460593575952316,-0.7019150072480898
1660172554755705,1.6784924086366573,0.15259021896690683,0.03051804379333589
1660172554771706,1.0070954451819034,-0.15259021896690683,-0.03051804379333589
1660172554787706,0.5188067444876197,0.03051804379333589,-1.3122758831159445
1660172554803706,0.7019150072480898,0.8239871824216607,-2.5940337224383256
1660172554819707,1.1291676203554744,1.8616006713969,-2.7161058976118966
1660172554835707,0.8239871824216607,1.6174563210497581,-1.6784924086366573
1660172554851707,-1.4953841458761872,0.6408789196611906,-0.213626306553806
1660172554867707,-2.410925459678083,1.0070954451819034,0.45777065690094787
1660172554883708,-1.2512397955290453,0.2746623941404778,-0.8850232700083325
1660172554899708,0.7629510948347615,0.09155413138023505,-1.6174563210497581
1660172554915710,2.410925459678083,0.2746623941404778,-1.5564202334630863
1660172554931710,0.2746623941404778,-0.7019150072480898,-0.7629510948347615
1660172554947711,-1.5564202334630863,-1.1291676203554744,0.03051804379333589
1660172554963711,-1.0070954451819034,-1.9226367589837992,-0.5798428320745188
1660172554979711,-0.213626306553806,-1.8005645838102282,-1.983672846570471
1660172554995711,-0.15259021896690683,-0.9460593575952316,-2.288853284504512
1660172555011712,0.33569848172737693,-0.33569848172737693,-1.3733119707026162
1660172555027712,0.03051804379333589,-0.8239871824216607,-0.33569848172737693
1660172555043712,-0.33569848172737693,-1.2512397955290453,0.8850232700083325
1660172555059713,-0.5798428320745188,-1.5564202334630863,0.8239871824216607
1660172555075713,-1.8616006713969,-1.3122758831159445,-0.09155413138023505
1660172555091713,-0.09155413138023505,-0.6408789196611906,-0.33569848172737693
1660172555107713,1.0070954451819034,-0.2746623941404778,-1.5564202334630863
1660172555123714,0.7629510948347615,-0.2746623941404778,-0.8850232700083325
1660172555139714,-0.2746623941404778,-0.03051804379333589,-0.213626306553806
1660172555155714,0.9460593575952316,0.09155413138023505,-0.03051804379333589
1660172555171714,1.6174563210497581,0.5188067444876197,-1.5564202334630863
1660172555187715,0.9460593575952316,1.0681315327688026,-0.9460593575952316
1660172555203715,0.45777065690094787,0.8239871824216607,-0.7629510948347615
1660172555219715,-1.0070954451819034,0.33569848172737693,-1.1902037079423735
1660172555235717,0.7019150072480898,1.1291676203554744,-0.8850232700083325
1660172555251718,0.9460593575952316,0.7629510948347615,-1.739528496223329
1660172555267718,0.8239871824216607,-0.6408789196611906,-1.4953841458761872
1660172555283718,-0.8239871824216607,-1.3733119707026162,-1.4343480582895154
1660172555299718,-1.0070954451819034,-0.8850232700083325,-1.3122758831159445
1660172555315719,-1.0681315327688026,-0.213626306553806,-1.8005645838102282
1660172555331719,-0.45777065690094787,0.15259021896690683,-1.6174563210497581
1660172555347719,0.2746623941404778,0.7019150072480898,-1.4343480582895154
1660172555363720,0.5188067444876197,0.09155413138023505,-0.33569848172737693
1660172555379720,-0.15259021896690683,-0.2746623941404778,-0.5798428320745188
1660172555395720,-0.3967345693140487,-0.8239871824216607,-0.5798428320745188
1660172555411720,2.227817196917613,-0.33569848172737693,-1.6784924086366573
1660172555427721,1.8616006713969,0.03051804379333589,-2.532997634851654
1660172555443721,1.0070954451819034,0.45777065690094787,-0.2746623941404778
1660172555459721,-0.33569848172737693,-0.45777065690094787,0.09155413138023505
1660172555475721,0.5798428320745188,-0.7019150072480898,0.5188067444876197
1660172555491722,1.739528496223329,-0.2746623941404778,0.213626306553806
1660172555507722,0.33569848172737693,-0.6408789196611906,-0.7019150072480898
1660172555523722,2.105745021744042,0.03051804379333589,-0.7019150072480898
1660172555539723,1.8616006713969,0.03051804379333589,-1.1291676203554744
1660172555555725,0.9460593575952316,0.213626306553806,-0.5798428320745188
1660172555571725,-0.09155413138023505,-0.03051804379333589,-0.7019150072480898
1660172555587725,0.09155413138023505,0.15259021896690683,-0.5798428320745188
1660172555603726,1.1902037079423735,0.33569848172737693,-1.2512397955290453
1660172555619726,0.33569848172737693,-0.09155413138023505,-1.8616006713969
1660172555635726,1.6174563210497581,0.2746623941404778,-1.3733119707026162
1660172555651726,1.4343480582895154,-0.09155413138023505,-1.8616006713969
1660172555667727,1.2512397955290453,0.2746623941404778,-0.8239871824216607
1660172555683727,-0.5188067444876197,0.45777065690094787,-0.5188067444876197
1660172555699727,-0.9460593575952316,0.2746623941404778,-0.8850232700083325
1660172555715727,0.2746623941404778,-0.213626306553806,-1.3122758831159445
1660172555731728,0.2746623941404778,-0.6408789196611906,-1.6174563210497581
1660172555747728,0.213626306553806,-0.6408789196611906,-0.6408789196611906
1660172555763728,0.8239871824216607,-0.7019150072480898,-0.33569848172737693
1660172555779729,1.5564202334630863,-0.45777065690094787,-0.33569848172737693
1660172555795729,1.4953841458761872,0.7629510948347615,-0.5798428320745188
1660172555811729,-0.15259021896690683,1.1902037079423735,-1.5564202334630863
1660172555827729,-0.7019150072480898,1.6174563210497581,-1.4953841458761872
1660172555843730,-0.213626306553806,1.4343480582895154,-0.8850232700083325
1660172555859730,-0.7019150072480898,1.3122758831159445,-1.3733119707026162
1660172555875763,0.9460593575952316,1.4953841458761872,-1.5564202334630863
1660172555891763,2.288853284504512,0.8850232700083325,-1.8616006713969
1660172555907763,1.5564202334630863,0.33569848172737693,-0.9460593575952316
1660172555923763,0.33569848172737693,-0.8850232700083325,-0.45777065690094787
1660172555939764,-0.09155413138023505,-1.1291676203554744,-1.3122758831159445
1660172555955764,1.2512397955290453,0.09155413138023505,-2.227817196917613
1660172555971764,1.6174563210497581,0.6408789196611906,-2.7771419851987957
1660172555987764,0.8239871824216607,0.8239871824216607,-1.8005645838102282
1660172556003765,0.5188067444876197,1.0070954451819034,-0.5188067444876197
1660172556019765,0.7019150072480898,0.8850232700083325,-0.5798428320745188
1660172556035765,0.213626306553806,1.0070954451819034,-0.9460593575952316
1660172556051766,0.09155413138023505,0.8239871824216607,-1.1291676203554744
1660172556067766,0.5188067444876197,-0.03051804379333589,-2.4719615472647547
1660172556083766,1.2512397955290453,-0.5188067444876197,-2.410925459678083
1660172556099766,1.1902037079423735,-0.7629510948347615,-2.655069810025225
1660172556115767,1.6174563210497581,-2.166781109330941,-2.8381780727854675
1660172556131767,1.983672846570471,-1.6174563210497581,-1.5564202334630863
1660172556147767,2.5940337224383256,-0.03051804379333589,-0.213626306553806
1660172556163767,-0.33569848172737693,-0.15259021896690683,-1.3733119707026162
1660172556179768,-0.9460593575952316,0.45777065690094787,-1.8616006713969
1660172556195770,1.3733119707026162,1.3122758831159445,-1.2512397955290453
1660172556211770,1.0070954451819034,0.8850232700083325,-1.3733119707026162
1660172556227770,0.213626306553806,1.0070954451819034,-1.0070954451819034
1660172556243771,0.8239871824216607,0.8850232700083325,0.15259021896690683
1660172556259771,0.8239871824216607,-0.45777065690094787,-0.8850232700083325
1660172556275771,-0.6408789196611906,-0.45777065690094787,-1.9226367589837992
1660172556291772,0.6408789196611906,-0.15259021896690683,-1.3122758831159445
1660172556307772,0.09155413138023505,-0.8239871824216607,-1.739528496223329
1660172556323772,-0.09155413138023505,-0.2746623941404778,-0.5798428320745188
1660172556339772,2.04470893415737,0.5798428320745188,-0.15259021896690683
1660172556355773,2.5940337224383256,0.2746623941404778,-1.4953841458761872
1660172556371773,0.8239871824216607,0.7019150072480898,-0.5798428320745188
1660172556387773,0.09155413138023505,1.3122758831159445,-0.45777065690094787
1660172556403773,0.8239871824216607,1.1902037079423735,-1.983672846570471
1660172556419774,1.1902037079423735,0.8850232700083325,-1.0070954451819034
1660172556435774,-0.8850232700083325,-0.5188067444876197,0.3967345693140487
1660172556451774,-1.5564202334630863,-1.4343480582895154,-0.45777065690094787
1660172556467774,1.739528496223329,-0.45777065690094787,-1.0070954451819034
1660172556483775,3.1433585107195086,0.7019150072480898,-2.288853284504512
1660172556499775,0.8850232700083325,0.8850232700083325,-1.3122758831159445
1660172556515777,0.8239871824216607,1.1291676203554744,-0.15259021896690683
1660172556531777,-0.33569848172737693,0.8850232700083325,-2.04470893415737
1660172556547778,-0.5188067444876197,1.4953841458761872,-1.2512397955290453
1660172556563778,-1.8005645838102282,0.8239871824216607,-0.5798428320745188
1660172556579778,-0.213626306553806,0.7019150072480898,-2.9602502479590385
1660172556595779,4.180971999694748,1.9226367589837992,-2.9602502479590385
1660172556611779,3.2654306858930795,1.1902037079423735,-1.983672846570471
1660172556627779,-1.0681315327688026,-0.3967345693140487,-0.8239871824216607
1660172556643779,-1.4343480582895154,-0.3967345693140487,0.03051804379333589
1660172556659780,-0.5188067444876197,-1.1291676203554744,-0.33569848172737693
1660172556675780,1.2512397955290453,-0.7019150072480898,-2.105745021744042
1660172556691780,2.288853284504512,0.15259021896690683,-1.9226367589837992
1660172556707780,2.4719615472647547,0.7019150072480898,-0.15259021896690683
1660172556723781,1.1291676203554744,1.5564202334630863,0.213626306553806
1660172556739781,0.15259021896690683,1.8616006713969,0.15259021896690683
1660172556755781,0.03051804379333589,1.3733119707026162,0.213626306553806
1660172556771782,0.7629510948347615,-0.03051804379333589,-0.213626306553806
1660172556787782,1.0070954451819034,-0.15259021896690683,-0.7019150072480898
1660172556803782,1.1902037079423735,0.03051804379333589,0.09155413138023505
1660172556819782,0.213626306553806,-0.3967345693140487,-0.7629510948347615
1660172556835785,0.8239871824216607,0.03051804379333589,-1.0681315327688026
1660172556851785,0.45777065690094787,0.3967345693140487,-1.4343480582895154
1660172556867785,0.6408789196611906,0.8850232700083325,-1.0681315327688026
1660172556883785,0.7629510948347615,0.33569848172737693,-1.8005645838102282
1660172556899786,-0.8850232700083325,0.8850232700083325,-1.739528496223329
1660172556915786,-1.1902037079423735,0.9460593575952316,-1.6784924086366573
1660172556931786,-2.3498893720911838,-0.5798428320745188,-2.288853284504512
1660172556947786,0.7629510948347615,-0.3967345693140487,-1.4953841458761872
1660172556963787,2.7161058976118966,-0.15259021896690683,-2.227817196917613
1660172556979787,3.6316472114137923,0.2746623941404778,-0.33569848172737693
1660172556995787,1.4953841458761872,-0.2746623941404778,0.7629510948347615
1660172557011788,-0.7629510948347615,-1.1291676203554744,0.3967345693140487
1660172557027788,-1.1291676203554744,-0.33569848172737693,-0.8239871824216607
1660172557043788,-0.5188067444876197,0.33569848172737693,-1.0681315327688026
1660172557059788,1.4343480582895154,1.0070954451819034,-1.3733119707026162
1660172557075789,2.288853284504512,1.983672846570471,-0.8850232700083325
1660172557091789,3.570611123826893,2.288853284504512,0.8850232700083325
1660172557107789,0.5798428320745188,0.213626306553806,-0.2746623941404778
1660172557123789,-0.6408789196611906,-0.09155413138023505,-0.2746623941404778
1660172557139790,-0.45777065690094787,0.45777065690094787,-1.8005645838102282
1660172557155792,-1.6784924086366573,-0.7019150072480898,-2.410925459678083
1660172557171792,-0.213626306553806,0.09155413138023505,-2.105745021744042
1660172557187792,1.3122758831159445,0.8850232700083325,-3.1433585107195086
1660172557203793,2.9602502479590385,2.04470893415737,-2.166781109330941
1660172557219793,-0.2746623941404778,1.0681315327688026,-1.4343480582895154
1660172557235793,-1.6784924086366573,0.9460593575952316,-0.7019150072480898
1660172557251793,-1.1902037079423735,0.3967345693140487,-0.3967345693140487
1660172557267794,-1.1291676203554744,-0.33569848172737693,-1.3733119707026162
1660172557283794,1.0070954451819034,0.2746623941404778,-1.739528496223329
1660172557299794,2.166781109330941,0.33569848172737693,-0.8850232700083325
1660172557315795,1.3733119707026162,-0.213626306553806,0.15259021896690683
1660172557331795,0.213626306553806,-0.2746623941404778,0.8850232700083325
1660172557347795,0.3967345693140487,-0.15259021896690683,1.1291676203554744
1660172557363795,-0.7019150072480898,-0.8239871824216607,0.5188067444876197
1660172557379796,-0.9460593575952316,-0.03051804379333589,0.09155413138023505
1660172557395796,1.1902037079423735,2.227817196917613,-1.4343480582895154
1660172557411796,3.5095750362402214,3.1433585107195086,-2.227817196917613
1660172557427796,2.227817196917613,3.5095750362402214,-2.105745021744042
1660172557443797,0.7629510948347615,3.6316472114137923,-1.3733119707026162
1660172557459797,1.983672846570471,3.0212863355459376,-2.4719615472647547
1660172557475830,3.7537193865873633,3.2654306858930795,-4.119935912108076
1660172557491830,5.157549401083315,3.0823224231326094,-3.692683299000464
1660172557507830,4.486152437628789,2.4719615472647547,-2.5940337224383256
1660172557523831,2.410925459678083,0.5188067444876197,-0.3967345693140487
1660172557539831,-0.213626306553806,-1.0681315327688026,1.1902037079423735
1660172557555831,-1.1291676203554744,-1.8616006713969,0.33569848172737693
1660172557571831,0.15259021896690683,-2.166781109330941,-2.105745021744042
1660172557587832,1.6784924086366573,-1.1902037079423735,-1.6174563210497581
1660172557603832,1.0070954451819034,0.15259021896690683,-0.2746623941404778
1660172557619832,-0.09155413138023505,0.213626306553806,0.09155413138023505
1660172557635832,1.1902037079423735,1.5564202334630863,0.09155413138023505
1660172557651833,1.6784924086366573,1.4343480582895154,0.09155413138023505
1660172557667833,-0.6408789196611906,0.7019150072480898,-0.3967345693140487
1660172557683833,-1.5564202334630863,0.2746623941404778,-0.3967345693140487
1660172557699833,0.9460593575952316,0.03051804379333589,-0.3967345693140487
1660172557715834,1.9226367589837992,-0.7629510948347615,-0.8850232700083325
1660172557731834,0.7629510948347615,-0.3967345693140487,0.213626306553806
1660172557747834,-1.1902037079423735,-0.5188067444876197,0.7019150072480898
1660172557763835,-2.5940337224383256,-0.8850232700083325,-0.03051804379333589
1660172557779835,-0.8239871824216607,0.03051804379333589,-1.8616006713969
1660172557795837,1.0681315327688026,1.4343480582895154,-3.0212863355459376
1660172557811837,2.532997634851654,3.6316472114137923,-1.5564202334630863
1660172557827838,0.7629510948347615,1.5564202334630863,-0.45777065690094787
1660172557843838,-0.9460593575952316,0.2746623941404778,0.6408789196611906
1660172557859838,0.33569848172737693,0.09155413138023505,0.7629510948347615
1660172557875838,1.0681315327688026,-1.4343480582895154,-1.4953841458761872
1660172557891839,1.3122758831159445,-1.0681315327688026,-1.739528496223329
1660172557907839,2.4719615472647547,0.03051804379333589,-1.0681315327688026
1660172557923839,2.532997634851654,-0.3967345693140487,-1.8616006713969
1660172557939839,1.739528496223329,-0.213626306553806,-1.1902037079423735
1660172557955840,0.3967345693140487,0.2746623941404778,-0.2746623941404778
1660172557971840,0.5798428320745188,0.09155413138023505,-0.33569848172737693
1660172557987840,0.09155413138023505,-0.09155413138023505,-0.2746623941404778
1660172558003841,0.15259021896690683,0.5798428320745188,-0.213626306553806
1660172558019841,0.9460593575952316,0.6408789196611906,-0.9460593575952316
1660172558035841,1.3122758831159445,-0.33569848172737693,-1.6784924086366573
1660172558051841,1.1902037079423735,-0.3967345693140487,-1.6174563210497581
1660172558067842,2.04470893415737,-0.03051804379333589,-1.1902037079423735
1660172558083842,1.6784924086366573,-0.7019150072480898,-0.8850232700083325
1660172558099842,0.33569848172737693,-0.2746623941404778,-0.15259021896690683
1660172558115844,-0.213626306553806,-0.5188067444876197,0.09155413138023505
1660172558131845,0.3967345693140487,-0.6408789196611906,-1.2512397955290453
1660172558147845,2.8992141603723667,1.8616006713969,-2.166781109330941
1660172558163845,2.8381780727854675,2.288853284504512,-1.739528496223329
1660172558179845,-0.5188067444876197,1.5564202334630863,-1.1291676203554744
1660172558195846,-1.2512397955290453,1.1291676203554744,-0.09155413138023505
1660172558211846,-0.5798428320745188,-0.5188067444876197,-0.2746623941404778
1660172558227846,0.213626306553806,-1.3733119707026162,-0.5798428320745188
1660172558243847,1.4953841458761872,-1.5564202334630863,-0.03051804379333589
1660172558259847,2.166781109330941,-1.3122758831159445,-1.1902037079423735
1660172558275847,2.7161058976118966,0.03051804379333589,-1.4953841458761872
1660172558291847,0.9460593575952316,0.5188067444876197,-0.8239871824216607
1660172558307848,-1.4343480582895154,0.45777065690094787,-0.3967345693140487
1660172558323848,-1.0681315327688026,1.3122758831159445,-0.9460593575952316
1660172558339848,-0.03051804379333589,1.3733119707026162,-0.5188067444876197
1660172558355848,-0.03051804379333589,0.3967345693140487,-0.9460593575952316
1660172558371849,0.45777065690094787,0.7629510948347615,-1.6784924086366573
1660172558387849,2.532997634851654,0.6408789196611906,-1.4953841458761872
1660172558403849,0.213626306553806,-0.33569848172737693,-2.166781109330941
1660172558419849,-0.213626306553806,-0.15259021896690683,-0.7019150072480898
1660172558435852,0.3967345693140487,-0.5798428320745188,-1.1902037079423735
1660172558451852,1.0681315327688026,-0.213626306553806,-1.2512397955290453
1660172558467852,1.6174563210497581,0.213626306553806,-0.9460593575952316
1660172558483852,2.3498893720911838,1.0681315327688026,-1.0681315327688026
1660172558499853,2.04470893415737,0.8239871824216607,-0.9460593575952316
1660172558515853,-1.3122758831159445,1.3122758831159445,-0.9460593575952316
1660172558531853,-0.6408789196611906,1.2512397955290453,0.213626306553806
1660172558547854,-0.3967345693140487,-0.09155413138023505,-0.7019150072480898
1660172558563854,0.8850232700083325,-0.7019150072480898,-1.1291676203554744
1660172558579854,2.532997634851654,0.2746623941404778,-1.8005645838102282
1660172558595854,3.7537193865873633,1.4953841458761872,-1.1291676203554744
1660172558611855,0.5798428320745188,0.3967345693140487,-0.8239871824216607
1660172558627855,-1.3122758831159445,0.45777065690094787,-0.5188067444876197
1660172558643855,-0.09155413138023505,0.3967345693140487,-1.2512397955290453
1660172558659855,0.7629510948347615,-0.3967345693140487,-1.3733119707026162
1660172558675856,1.4953841458761872,-0.6408789196611906,-1.4953841458761872
1660172558691856,1.2512397955290453,-0.7629510948347615,-1.0070954451819034
1660172558707856,1.2512397955290453,0.5798428320745188,0.3967345693140487
1660172558723857,0.9460593575952316,1.0681315327688026,0.6408789196611906
1660172558739857,0.3967345693140487,0.09155413138023505,-0.6408789196611906
1660172558755859,-0.7629510948347615,0.9460593575952316,-1.8005645838102282
1660172558771859,1.2512397955290453,2.532997634851654,-1.6174563210497581
1660172558787860,1.0681315327688026,1.4953841458761872,-1.4953841458761872
1660172558803860,0.5798428320745188,1.1902037079423735,0.15259021896690683
1660172558819860,0.2746623941404778,-0.33569848172737693,0.45777065690094787
1660172558835860,-0.33569848172737693,-1.3733119707026162,-0.33569848172737693
1660172558851861,1.2512397955290453,-0.09155413138023505,-1.6174563210497581
1660172558867861,0.9460593575952316,0.2746623941404778,-2.7161058976118966
1660172558883861,1.4953841458761872,0.9460593575952316,-1.8616006713969
1660172558899861,1.1902037079423735,0.7629510948347615,-1.4953841458761872
1660172558915862,0.8239871824216607,0.3967345693140487,-0.5188067444876197
1660172558931862,0.09155413138023505,0.03051804379333589,-0.33569848172737693
1660172558947862,0.7019150072480898,-1.2512397955290453,-0.6408789196611906
1660172558963863,0.9460593575952316,-0.3967345693140487,-1.3122758831159445
1660172558979863,1.0681315327688026,0.5798428320745188,-1.0681315327688026
1660172558995863,0.7629510948347615,1.1902037079423735,-1.1291676203554744
1660172559011863,1.1291676203554744,1.1902037079423735,-1.1291676203554744
1660172559027864,0.15259021896690683,0.8239871824216607,-1.2512397955290453
1660172559043864,0.33569848172737693,1.0681315327688026,-1.1902037079423735
1660172559059864,0.33569848172737693,0.2746623941404778,-1.5564202334630863
1660172559075897,0.33569848172737693,0.7629510948347615,-1.1291676203554744
1660172559091898,-1.0681315327688026,0.8850232700083325,-0.9460593575952316
1660172559107898,-1.0681315327688026,0.9460593575952316,-0.8850232700083325
1660172559123899,1.4953841458761872,1.983672846570471,-1.8005645838102282
1660172559139900,2.410925459678083,1.6784924086366573,-2.410925459678083
1660172559155901,0.3967345693140487,0.8239871824216607,-1.8005645838102282
1660172559171901,-1.3122758831159445,-0.09155413138023505,-1.0681315327688026
1660172559187902,-1.1291676203554744,-0.9460593575952316,-0.8239871824216607
1660172559203903,0.7629510948347615,-0.6408789196611906,-1.1902037079423735
1660172559219904,3.0212863355459376,-0.03051804379333589,-1.1902037079423735
1660172559235904,3.692683299000464,0.45777065690094787,-0.7629510948347615
1660172559251905,1.2512397955290453,0.5798428320745188,-0.2746623941404778
1660172559267906,-0.3967345693140487,1.1902037079423735,0.09155413138023505
1660172559283907,-0.3967345693140487,1.8005645838102282,-0.5798428320745188
1660172559299907,0.8239871824216607,0.5798428320745188,-0.7019150072480898
1660172559315908,0.8239871824216607,0.33569848172737693,-1.2512397955290453
1660172559331909,0.3967345693140487,0.3967345693140487,-0.6408789196611906
1660172559347910,2.04470893415737,0.33569848172737693,-0.6408789196611906
1660172559363910,2.227817196917613,-0.03051804379333589,-1.5564202334630863
1660172559379911,1.3122758831159445,0.15259021896690683,-0.33569848172737693
1660172559395904,-0.7629510948347615,0.15259021896690683,-1.0681315327688026
1660172559411905,-0.03051804379333589,0.7629510948347615,-0.8850232700083325
1660172559427906,0.09155413138023505,0.5798428320745188,-1.2512397955290453
1660172559443906,-1.4953841458761872,0.45777065690094787,-1.5564202334630863
1660172559459907,1.0681315327688026,1.6174563210497581,-1.8616006713969
1660172559475908,2.166781109330941,1.1291676203554744,-1.8005645838102282
1660172559491909,1.6784924086366573,1.1291676203554744,-0.15259021896690683
1660172559507909,-0.7629510948347615,0.2746623941404778,-0.15259021896690683
1660172559523910,0.09155413138023505,0.09155413138023505,-0.5798428320745188
1660172559539911,1.6784924086366573,-0.15259021896690683,-2.166781109330941
1660172559555912,0.7629510948347615,0.03051804379333589,-2.4719615472647547
1660172559571912,0.09155413138023505,0.5188067444876197,-1.0681315327688026
1660172559587913,-0.2746623941404778,-0.33569848172737693,-0.7019150072480898
1660172559603914,0.3967345693140487,-0.5188067444876197,0.33569848172737693
1660172559619915,-0.7019150072480898,-0.33569848172737693,0.7629510948347615
1660172559635915,-5.401693751430457,-1.0070954451819034,2.227817196917613
1660172559651916,-9.491111619745197,-1.4953841458761872,3.936827649347606
1660172559667917,-4.730296787975931,-1.739528496223329,0.45777065690094787
1660172559683918,2.8992141603723667,1.4953841458761872,-3.0212863355459376
1660172559699918,4.486152437628789,3.692683299000464,-1.9226367589837992
1660172559715911,-0.15259021896690683,1.3733119707026162,-0.15259021896690683
1660172559731912,-1.9226367589837992,0.213626306553806,1.2512397955290453
1660172559747913,-0.9460593575952316,1.0070954451819034,0.3967345693140487
1660172559763914,1.3122758831159445,0.8239871824216607,-1.4343480582895154
1660172559779914,1.739528496223329,0.3967345693140487,-1.3122758831159445
1660172559795915,1.1902037079423735,0.2746623941404778,-0.5188067444876197
1660172559811916,0.2746623941404778,-0.33569848172737693,-1.3122758831159445
1660172559827917,0.9460593575952316,-0.5798428320745188,-0.9460593575952316
1660172559843917,0.45777065690094787,-1.4343480582895154,-1.1291676203554744
1660172559859918,-0.2746623941404778,-1.4343480582895154,-1.0070954451819034
1660172559875919,-0.33569848172737693,-0.5798428320745188,0.213626306553806
1660172559891920,-2.288853284504512,-0.7019150072480898,1.1291676203554744
1660172559907920,-1.5564202334630863,-0.2746623941404778,1.0070954451819034
1660172559923921,1.3733119707026162,0.7629510948347615,0.03051804379333589
1660172559939922,2.410925459678083,1.9226367589837992,-0.45777065690094787
1660172559955923,-0.2746623941404778,0.8850232700083325,-0.3967345693140487
1660172559971923,-2.532997634851654,0.33569848172737693,-0.03051804379333589
1660172559987924,-2.166781109330941,0.33569848172737693,0.45777065690094787
1660172560003925,-1.4953841458761872,-0.3967345693140487,-0.2746623941404778
1660172560019926,0.213626306553806,-0.5798428320745188,-0.5188067444876197
1660172560035919,1.6174563210497581,0.45777065690094787,-0.33569848172737693
1660172560051920,2.105745021744042,0.7019150072480898,-0.3967345693140487
1660172560067920,0.213626306553806,0.03051804379333589,-0.6408789196611906
1660172560083921,-0.2746623941404778,1.0681315327688026,-0.5188067444876197
1660172560099922,0.8239871824216607,0.7019150072480898,-1.0070954451819034
1660172560115923,0.3967345693140487,-0.03051804379333589,-1.4953841458761872
1660172560131923,-0.03051804379333589,0.9460593575952316,-1.0070954451819034
1660172560147924,1.1291676203554744,1.4343480582895154,-1.1902037079423735
1660172560163925,2.3498893720911838,1.4343480582895154,-1.1902037079423735
1660172560179926,1.2512397955290453,0.8239871824216607,-0.15259021896690683
1660172560195926,-1.3733119707026162,-0.33569848172737693,-0.03051804379333589
1660172560211927,-1.739528496223329,-0.5798428320745188,-0.6408789196611906
1660172560227928,-0.09155413138023505,-0.213626306553806,-2.105745021744042
1660172560243929,2.166781109330941,0.09155413138023505,-2.166781109330941
1660172560259929,3.875791561760934,0.8850232700083325,-0.9460593575952316
1660172560275930,2.105745021744042,-0.213626306553806,0.03051804379333589
1660172560291931,-0.03051804379333589,0.09155413138023505,0.2746623941404778
1660172560307932,-0.3967345693140487,0.9460593575952316,-0.15259021896690683
1660172560323932,-0.03051804379333589,0.9460593575952316,-1.4953841458761872
1660172560339933,1.1902037079423735,1.5564202334630863,-2.04470893415737
1660172560355926,2.8381780727854675,1.6174563210497581,-0.8239871824216607
1660172560371927,1.8616006713969,1.0070954451819034,-1.3122758831159445
1660172560387928,0.09155413138023505,0.45777065690094787,-0.9460593575952316
1660172560403928,-0.213626306553806,0.03051804379333589,-0.7019150072480898
1660172560419929,-0.33569848172737693,-1.0070954451819034,-1.4343480582895154
1660172560435930,0.9460593575952316,-0.7019150072480898,-0.8239871824216607
1660172560451931,1.8005645838102282,-0.5798428320745188,-1.2512397955290453
1660172560467931,1.3733119707026162,-0.213626306553806,-1.3122758831159445
1660172560483932,-0.09155413138023505,1.1291676203554744,-0.5798428320745188
1660172560499933,-1.0070954451819034,1.2512397955290453,-0.03051804379333589
1660172560515934,0.03051804379333589,1.4343480582895154,0.5188067444876197
1660172560531934,1.9226367589837992,1.1902037079423735,0.45777065690094787
1660172560547935,2.9602502479590385,2.04470893415737,-0.09155413138023505
1660172560563936,3.2043945983061803,2.8992141603723667,0.33569848172737693
1660172560579937,0.3967345693140487,1.5564202334630863,-0.15259021896690683
1660172560595937,-2.9602502479590385,1.3122758831159445,-1.0681315327688026
1660172560611938,-2.166781109330941,0.8239871824216607,-1.0681315327688026
1660172560627939,-0.213626306553806,0.2746623941404778,-2.105745021744042
1660172560643940,0.7019150072480898,0.6408789196611906,-2.105745021744042
1660172560659940,1.1902037079423735,0.45777065690094787,-0.7019150072480898
1660172560675964,1.5564202334630863,-0.5798428320745188,-0.8850232700083325
1660172560691965,1.0070954451819034,-0.9460593575952316,-1.0070954451819034
1660172560707965,0.03051804379333589,-1.0681315327688026,-0.9460593575952316
1660172560723966,-0.6408789196611906,-0.5188067444876197,-2.04470893415737
1660172560739967,1.3122758831159445,1.1291676203554744,-2.410925459678083
1660172560755968,2.3498893720911838,1.6174563210497581,-1.9226367589837992
1660172560771968,1.5564202334630863,0.9460593575952316,-0.213626306553806
1660172560787969,1.1902037079423735,0.5188067444876197,1.0681315327688026
1660172560803970,1.0070954451819034,-0.5188067444876197,0.7629510948347615
1660172560819971,1.1902037079423735,-0.8850232700083325,-0.09155413138023505
1660172560835971,0.5188067444876197,-0.213626306553806,-1.739528496223329
1660172560851972,1.3122758831159445,0.3967345693140487,-1.739528496223329
1660172560867973,0.8239871824216607,0.8239871824216607,-1.4953841458761872
1660172560883974,-0.03051804379333589,0.6408789196611906,-0.5188067444876197
1660172560899974,-0.6408789196611906,0.09155413138023505,0.09155413138023505
1660172560915975,1.1291676203554744,-0.09155413138023505,-0.09155413138023505
1660172560931976,2.3498893720911838,-0.09155413138023505,-1.739528496223329
1660172560947977,0.8239871824216607,0.2746623941404778,-1.3122758831159445
1660172560963977,-0.03051804379333589,0.09155413138023505,-0.7019150072480898
1660172560979978,-0.8850232700083325,0.09155413138023505,-1.983672846570471
1660172560995971,1.0070954451819034,1.1902037079423735,-1.0681315327688026
1660172561011972,1.4953841458761872,0.3967345693140487,-1.3733119707026162
1660172561027973,2.04470893415737,1.4953841458761872,-1.5564202334630863
1660172561043974,2.227817196917613,1.1902037079423735,-0.45777065690094787
1660172561059974,-0.7629510948347615,-0.9460593575952316,0.15259021896690683
1660172561075975,0.8850232700083325,0.5798428320745188,-0.5798428320745188
1660172561091976,2.9602502479590385,0.7019150072480898,-1.6784924086366573
1660172561107977,1.8005645838102282,-0.2746623941404778,-0.7019150072480898
1660172561123977,-2.288853284504512,-0.5188067444876197,0.09155413138023505
1660172561139978,-1.0681315327688026,0.7019150072480898,-0.33569848172737693
1660172561155979,0.7019150072480898,1.3122758831159445,-1.8005645838102282
1660172561171980,0.9460593575952316,1.9226367589837992,-1.2512397955290453
1660172561187980,0.6408789196611906,0.7019150072480898,-1.5564202334630863
1660172561203981,0.03051804379333589,0.2746623941404778,-1.2512397955290453
1660172561219982,1.3733119707026162,0.8850232700083325,-0.7019150072480898
1660172561235983,0.3967345693140487,-0.33569848172737693,-1.2512397955290453
1660172561251983,0.9460593575952316,-0.09155413138023505,-0.8239871824216607
1660172561267984,0.2746623941404778,-0.213626306553806,-1.4953841458761872
1660172561283985,1.4343480582895154,0.5798428320745188,-1.1291676203554744
1660172561299986,0.5798428320745188,0.33569848172737693,-1.2512397955290453
1660172561315979,0.09155413138023505,0.5798428320745188,-0.2746623941404778
1660172561331979,0.03051804379333589,0.8850232700083325,-0.2746623941404778
1660172561347980,-0.3967345693140487,0.8239871824216607,-0.33569848172737693
1660172561363981,1.3733119707026162,0.9460593575952316,-0.45777065690094787
1660172561379982,0.6408789196611906,-0.5188067444876197,-1.3122758831159445
1660172561395982,1.0070954451819034,0.15259021896690683,-0.45777065690094787
1660172561411983,0.8239871824216607,-1.1291676203554744,-0.5798428320745188
1660172561427984,-0.2746623941404778,-1.983672846570471,-0.8850232700083325
1660172561443985,0.45777065690094787,-1.1291676203554744,-0.213626306553806
1660172561459985,0.03051804379333589,-0.6408789196611906,-0.9460593575952316
1660172561475986,-1.0681315327688026,1.0070954451819034,0.7629510948347615
1660172561491987,-0.8850232700083325,1.6174563210497581,1.1291676203554744
1660172561507988,-1.3733119707026162,1.1902037079423735,-0.9460593575952316
1660172561523988,0.8239871824216607,2.655069810025225,-1.1291676203554744
1660172561539989,0.15259021896690683,1.983672846570471,-1.4953841458761872
1660172561555990,-0.8850232700083325,0.5188067444876197,-0.6408789196611906
1660172561571991,-1.1291676203554744,0.3967345693140487,-0.2746623941404778
1660172561587991,1.3122758831159445,0.7019150072480898,-0.8850232700083325
1660172561603992,3.0823224231326094,0.2746623941404778,-2.105745021744042
1660172561619993,2.532997634851654,0.45777065690094787,-1.3122758831159445
1660172561635986,0.45777065690094787,-0.09155413138023505,-0.7629510948347615
1660172561651987,-1.0070954451819034,-0.2746623941404778,-0.8239871824216607
1660172561667987,0.45777065690094787,0.8850232700083325,-0.45777065690094787
1660172561683988,1.6784924086366573,0.5188067444876197,-1.8005645838102282
1660172561699989,2.166781109330941,1.1291676203554744,-2.4719615472647547
1660172561715990,2.166781109330941,1.4953841458761872,-1.8616006713969
1660172561731990,0.15259021896690683,1.0070954451819034,-0.8850232700083325
1660172561747991,-0.213626306553806,1.1291676203554744,0.15259021896690683
1660172561763992,0.6408789196611906,0.7019150072480898,-0.7629510948347615
1660172561779993,2.105745021744042,1.0681315327688026,-1.8616006713969
1660172561795993,2.288853284504512,1.4953841458761872,-2.288853284504512
1660172561811994,1.6174563210497581,0.45777065690094787,-1.1291676203554744
1660172561827995,1.4953841458761872,0.09155413138023505,-0.2746623941404778
1660172561843996,0.5798428320745188,-0.7019150072480898,-0.33569848172737693
1660172561859996,0.45777065690094787,0.33569848172737693,-0.8239871824216607
1660172561875997,2.8381780727854675,1.4343480582895154,-1.2512397955290453
1660172561891998,2.7161058976118966,0.6408789196611906,-1.1902037079423735
1660172561907999,0.5798428320745188,0.8850232700083325,-0.3967345693140487
1660172561923999,-0.9460593575952316,1.1902037079423735,-1.0681315327688026
1660172561940000,0.213626306553806,1.4953841458761872,-2.105745021744042
1660172561955993,2.8992141603723667,2.288853284504512,-1.8616006713969
1660172561971994,3.3264667734797513,1.0070954451819034,-1.739528496223329
1660172561987995,1.983672846570471,0.5188067444876197,-0.8850232700083325
1660172562003996,1.4343480582895154,0.33569848172737693,-0.5798428320745188
1660172562019996,1.3122758831159445,-0.45777065690094787,-1.4343480582895154
1660172562035997,2.7161058976118966,-1.1291676203554744,-1.0070954451819034
1660172562051998,11.932555123216616,-4.058899824521177,8.33142595559616
1660172562067999,67.84161135271233,-40.37537193865887,64.85084306095996
1660172562083999,119.35606927595927,-123.56755931944758,113.00831616693358
1660172562100000,55.634393835354786,-287.02220187685975,80.72022583352418
1660172562116001,-27.252613107499656,-462.2568093385214,43.67132066834506
1660172562132002,3.1433585107195086,-473.54848554207683,52.64362554360241
1660172562148002,9.918364232852582,-335.85107194628813,74.06729228656468
1660172562164003,-31.525139238574866,-173.00679026474404,37.01838712138533
1660172562180004,-22.186617837796575,-13.031204699778755,13.64156557564661
1660172562196004,4.242008087281647,0.5188067444876197,-0.5188067444876197
1660172562212005,19.1348134584573,10.772869459067579,1.6784924086366573
1660172562228006,26.459143968871558,16.937514305333025,9.063859006637585
1660172562244007,27.435721370260126,23.102159151598244,18.402380407415876
1660172562260007,29.816128786144645,26.886396581978943,22.919050888838
1660172562276031,32.62378881513678,27.98504615854108,19.9893186846723
1660172562292032,27.98504615854108,40.1312275883115,10.528725108720437
1660172562308033,-5.523765926604028,107.57610437170979,-9.491111619745197
1660172562324033,-74.73868925001898,306.6758220798047,-48.18799114976741
1660172562340034,-38.66636148622888,454.56626230258644,-67.65850308995186
1660172562356035,-4.364080262455218,432.53223468375654,-65.52224002441449
1660172562372036,-17.181658655680167,310.7042038605323,-54.65781643396667
1660172562388036,-26.82536049439227,175.44823376821523,-41.53505760280768
1660172562404037,-6.378271152819025,49.591821164263365,-3.7537193865873633
1660172562420038,115.08354314488452,-120.45471885252164,100.06866559853506
1660172562436039,52.15533684290813,-321.6906996261539,94.94163424124508
1660172562452039,-66.7429617761502,-488.99061570153367,47.57763027389933
1660172562468040,11.01701380941472,-494.97215228503865,50.263218127717664
1660172562484041,-64.72877088578616,-164.52277409018097,-0.5188067444876197
1660172562500042,-48.6152437628748,-25.29945830472252,2.532997634851654
1660172562516042,-62.409399557488314,-9.124895094224485,7.782101167315204
1660172562532043,-36.530098420691274,-5.096513313496644,9.369039444571627
1660172562548044,-2.9602502479590385,-0.09155413138023505,4.9134050507361735
1660172562564045,27.679865720607268,28.04608224612798,-0.8850232700083325
1660172562580045,47.82177462424647,88.22766460669891,4.852368963149502
1660172562596038,-1.6174563210497581,281.9562066071562,-14.496070801861606
1660172562612039,48.92042420080861,503.3951323720148,-57.83169298847952
1660172562628040,92.31708247501365,502.23544670786623,-65.33913176165402
1660172562644041,66.13260090028234,386.877241168841,-51.5449759670405
1660172562660041,29.26680399786369,241.367208361944,-43.244068055237676
1660172562676042,3.936827649347606,112.70313572899977,-30.975814450293683
1660172562692043,-12.542915999084471,22.8580148012511,-12.4208438239109
1660172562708044,40.497444113832216,-78.52292668039968,50.690470740825276
1660172562724044,96.16235599298079,-207.61425192645152,91.46257724879842
1660172562740045,29.38887617303726,-388.83039597161815,51.4229037918667
1660172562756046,-81.26955062180514,-585.3055619134814,7.660028992141633
1660172562772047,-51.48393987945383,-622.3544670786603,22.919050888838
1660172562788047,58.442053864347145,-499.54985885404744,69.7337300679028
1660172562804048,-57.34340428778523,-201.08339055466536,21.942473487449433
1660172562820049,-7.17174029144735,-41.840238040741724,21.39314869916825
1660172562836050,6.683451590753066,-15.167467765316132,10.040436408026153
1660172562852050,27.98504615854108,-0.5798428320745188,-0.6408789196611906
1660172562868051,15.777828641183987,6.256198977645454,-0.2746623941404778
1660172562884052,14.557106889448278,22.186617837796575,11.07804989700162
1660172562900053,32.562752727550105,66.07156481269567,17.48683909361398
1660172562916046,37.2014953841458,189.6696421759366,-8.209353780422589
1660172562932047,-19.195849546043974,413.55001144426615,-70.58823529411757
1660172562948047,10.89494163424115,476.60028992141633,-90.6080720225832
1660172562964048,36.469062333104375,357.64095521477066,-53.07087815671025
1660172562980049,82.3682001983675,158.96849011978338,6.622415503166167
1660172562996050,72.72449835965517,-29.755092698557974,23.773556115052997
1660172563012050,39.27672236209651,-208.22461280231937,37.87289234760033
1660172563028051,7.11070420386045,-305.2719920653087,56.73304341191715
1660172563044052,22.125581750209676,-328.0994888227665,82.79545281147512
1660172563060052,20.782787823300396,-312.1080338750287,83.34477759975607
1660172563076053,-74.6776531624323,-120.39368276493474,6.683451590753066
1660172563092054,-35.431448844129136,-46.41794460975052,-0.09155413138023505
1660172563108055,-0.03051804379333589,-22.308690012970146,3.1433585107195086
1660172563124055,13.824673838406852,1.3122758831159445,2.5940337224383256
1660172563140056,15.350576028076603,18.280308232242305,-0.09155413138023505
1660172563156057,26.6422522316318,33.600366216525344,2.8992141603723667
1660172563172058,33.23414969100463,51.667048142213844,0.09155413138023505
1660172563188058,31.70824750133511,77.3022049286642,-13.031204699778755
1660172563204059,-32.37964446478986,183.93224994277853,-48.73731593804837
1660172563220060,-48.310063324940984,340.4287785152974,-104.52429999237052
1660172563236053,-18.82963302052326,314.2442969405665,-107.27092393377598
1660172563252054,-16.754406042572555,195.529106584268,-80.59815365835038
1660172563268055,-30.60959792477297,107.2098878461893,-63.752193484397594
1660172563284055,-34.027618829633184,70.03891050583661,-59.90691996643022
1660172563300056,-20.782787823300396,44.95307850766744,-46.29587243457695
1660172563316057,8.819714656290444,-21.33211261158158,-11.322194247348762
1660172563332058,34.63797970550081,-198.03158617532608,34.33279926756677
1660172563348058,18.158236057068734,-395.3002212558174,69.06233310444804
1660172563364059,31.036850537880355,-435.4009308003358,96.04028381780745
1660172563380060,19.501029983978015,-368.9326314183261,84.26031891355797
1660172563396061,-41.657129777981254,-252.84199282825966,51.483939879453374
1660172563412061,-59.90691996643022,-74.55558098725874,15.350576028076603
1660172563428062,-3.875791561760934,-35.55352101930271,1.3733119707026162
1660172563444063,10.223544670786623,-7.049668116273779,-6.134126802471883
1660172563460064,-0.7019150072480898,13.214312962538997,-0.15259021896690683
1660172563476064,-7.11070420386045,29.14473182269012,4.669260700389032
1660172563492065,-3.2654306858930795,51.30083161669336,6.561379415579495
1660172563508066,4.547188525215461,88.65491721980652,3.6316472114137923
1660172563524067,-12.115663385976859,188.8761730373085,-6.317235065232353
1660172563540067,-19.378957808804444,373.9375906004425,-47.8217746242467
1660172563556060,-7.598992904554734,415.5031662470433,-65.70534828717473
1660172563572061,8.392462043183059,324.3762874799727,-49.83596551461051
1660172563588062,7.2938124666209205,213.41268024719648,-38.91050583657602
1660172563604063,-0.5188067444876197,131.8074311436635,-36.835278858625315
1660172563620063,0.5188067444876197,88.22766460669891,-38.178072785534596
1660172563636064,-0.09155413138023505,62.9587243457695,-42.69474326695672
1660172563652065,-14.80125123979542,9.002822919050914,-35.85870145723675
1660172563668066,9.491111619745197,-208.52979324025318,25.970855268177274
1660172563684066,-4.486152437628789,-525.6733043411916,77.11909666590373
1660172563700067,42.26749065384888,-634.3785763332571,87.98352025635177
1660172563716068,70.5271992065309,-514.0154116121157,105.43984130617218
1660172563732069,-78.52292668039968,-243.32036316472113,32.01342793926892
1660172563748069,-29.938200961318216,-95.97924773022055,23.346303501945386
1660172563764070,41.65712977798103,-59.1134508278019,12.603952086671143
1660172563780071,41.04676890211317,-24.07873655298681,-1.1902037079423735
1660172563796072,20.35553521019301,-3.2043945983061803,-9.67421988250544
1660172563812072,18.280308232242305,23.468375677118956,-2.410925459678083
1660172563828073,10.284580758373295,76.81391622796991,9.67421988250544
1660172563844074,-39.276722362096734,217.7462424658579,1.983672846570471
1660172563860075,-41.840238040741724,493.8124666208896,-60.273136491950936
1660172563876098,11.993591210803288,584.0848401617459,-96.89478904402245
1660172563892099,26.459143968871558,509.0714885175862,-79.68261234454872
1660172563908100,18.463416495002548,395.0560769054705,-47.333485923552416
1660172563924101,0.5188067444876197,280.7354848554205,-31.342030975814623
1660172563940101,-10.345616845960194,174.34958419165332,-34.88212405584818
1660172563956102,-10.89494163424115,87.8004119935913,-42.81681544213029
1660172563972103,-8.697642481116873,23.590447852292527,-42.75577935454339
1660172563988103,15.350576028076603,-99.2141603723203,-1.6784924086366573
1660172564004104,39.52086671244365,-353.55153734645614,47.51659418631243
1660172564020105,-32.745860990310575,-603.3722438391701,46.29587243457672
1660172564036106,26.39810788128466,-581.0940718699931,75.16594186312659
1660172564052106,99.45830472266744,-324.8035400930801,111.17723353933025
1660172564068107,74.3724727244985,-201.93789578088035,88.34973678187225
1660172564084108,44.037537193865774,-192.111085679408,67.65850308995232
1660172564100109,-1.3733119707026162,-93.04951552605462,39.52086671244365
1660172564116109,-1.3733119707026162,-17.36476691844041,19.562066071564686
1660172564132110,0.09155413138023505,-4.852368963149502,6.9886320286868795
1660172564148111,3.814755474174035,12.970168612191856,2.8381780727854675
1660172564164112,5.889982452124741,42.08438239108864,-0.2746623941404778
1660172564180112,-14.80125123979542,116.24322880903355,-10.650797283894008
1660172564196106,-56.244754711223095,322.72831311512937,-57.77065690089262
1660172564212106,-48.6762798504617,461.28023193713307,-101.53353170061814
1660172564228107,-38.60532539864198,454.99351491569405,-99.580376897841
1660172564244108,-28.96162355992965,381.56710154879056,-78.33981841763944
1660172564260109,-23.224231326771815,269.32173647669197,-58.625162127107615
1660172564276109,-31.89135576409558,138.277256427863,-49.28664072632955
1660172564292110,-29.755092698557974,12.359807736324,-22.064545662623004
1660172564308111,31.036850537880355,-162.93583581292455,47.6997024490729
1660172564324112,37.9949645227739,-421.1795223926147,86.0914015411613
1660172564340112,22.919050888838,-574.5632104982071,93.17158770122842
1660172564356113,100.86213473716361,-465.73586633096807,106.96574349584216
1660172564372114,50.507362478064806,-269.5048447394522,90.48599984740986
1660172564388115,-44.15960936903957,-47.211413748378845,25.726710917830133
1660172564404115,1.6784924086366573,6.317235065232353,17.059586480506596
1660172564420116,2.8381780727854675,18.097199969481835,2.410925459678083
1660172564436117,8.392462043183059,30.792706187533213,0.8850232700083325
1660172564452118,0.7019150072480898,54.04745555809859,1.9226367589837992
1660172564468118,-22.61387045090396,115.38872358281833,-1.3122758831159445
1660172564484119,-52.033264667734784,337.13282978561074,-32.806897077897474
1660172564500120,-28.107118333714652,509.8649576562143,-87.61730373083083
1660172564516113,-0.213626306553806,486.97642481116964,-83.77203021286323
1660172564532114,8.087281605249018,376.4400701915006,-59.23552300297547
1660172564548114,-8.026245517662346,267.612726024262,-50.6904707408255
1660172564564115,-21.27107652399468,200.9002822919051,-55.08506904707406
1660172564580116,-19.623102159151586,163.85137712672622,-58.19790951400023
1660172564596117,-11.383230334935433,76.3866636148623,-38.84946974898912
1660172564612117,45.92965590905601,-147.8599221789882,35.67559319447605
1660172564628118,53.98641947051192,-459.87640192263666,75.28801403830039
1660172564644119,-34.271763179980326,-697.7950713359273,63.81322957198472
1660172564660120,84.68757152666512,-622.720683604181,97.81033035782411
1660172564676120,74.92179751277945,-334.56931410696575,114.90043488212405
1660172564692121,-13.519493400473038,-147.55474174105439,41.90127412832817
1660172564708122,3.6316472114137923,-49.40871290150312,16.1440451667047
1660172564724123,10.467689021133765,-26.82536049439227,-0.9460593575952316
1660172564740123,7.17174029144735,-13.336385137712568,-4.303044174868319
1660172564756124,0.2746623941404778,0.7019150072480898,-4.9134050507361735
1660172564772125,-11.932555123216616,23.83459220263967,-6.012054627298312
1660172564788126,-40.558480201419115,112.5200274662393,3.0212863355459376
1660172564804126,-53.86434729533835,358.0071717402916,-47.51659418631266
1660172564820127,-41.59609369039458,537.2091248950942,-118.25741969939736
1660172564836120,-31.097886625467254,514.0764476997024,-107.0878156710155
1660172564852121,-6.8665598535133086,411.47478446631567,-60.51728084229808
1660172564868122,-6.561379415579495,339.5132372014955,-38.36118104829484
1660172564884122,-17.181658655680167,298.802166781109,-43.48821240558482
1660172564900123,-27.191577019912984,252.96406500343346,-46.9672693980317
1660172564916124,-29.38887617303726,196.13946746013607,-45.01411459525457
1660172564932125,-21.087968261234437,114.35111009384309,-35.614557106889606
1660172564948125,-15.228503852903032,31.097886625467254,-19.623102159151586
1660172564964126,44.46478980697316,-134.18783855954825,57.221332112611435
1660172564980127,113.55764095521499,-445.3498130769817,95.30785076676602
1660172564996128,10.772869459067579,-806.7444876783397,69.97787441824994
1660172565012128,51.850156404974314,-872.2362096589609,108.85786221103217
1660172565028129,168.30701152056145,-515.1750972762645,192.35523002975515
1660172565044130,52.2163729304948,-198.8250553139544,92.8664072632946
1660172565060131,22.552834363317288,-77.66842145418468,35.004196231021524
1660172565076131,17.120622568093268,-51.117723353933116,10.772869459067579
1660172565092132,6.683451590753066,-37.44563973449317,10.162508583199724
1660172565108133,3.570611123826893,-14.862287327382319,18.70756084534969
1660172565124134,-6.500343327992596,15.045395590142562,15.716792553597315
1660172565140134,-19.684138246738257,64.05737392233186,9.613183794918768
1660172565156158,-43.9765011062791,160.25024795910576,-15.228503852903032
1660172565172159,-85.05378805218584,428.2597085526818,-94.69748989089817
1660172565188160,-35.85870145723675,556.4354924849317,-122.71305409323259
1660172565204160,-9.918364232852582,495.0331883726253,-96.95582513160912
1660172565220161,-21.27107652399468,356.05401693751446,-68.94026092927447
1660172565236162,-40.1922636758984,229.89242389562833,-61.432822156099746
1660172565252163,-45.07515068284124,136.568245975433,-58.625162127107615
1660172565268163,-12.542915999084471,30.73167009994654,-11.07804989700162
1660172565284164,79.74364843213561,-138.03311207751585,77.05806057831705
1660172565300165,50.507362478064806,-434.42435339894723,92.25604638742652
1660172565316166,-42.999923704890534,-683.2684824902724,78.03463797970562
1660172565332166,49.16456855115575,-618.8754100862136,107.57610437170979
1660172565348167,36.83527885862509,-379.24773022049294,105.68398565651933
1660172565364168,-86.76279850461583,-117.34187838559546,16.693369954985883
1660172565380169,-13.031204699778755,-37.14045929655913,23.407339589532285
1660172565396169,21.45418478675515,-10.650797283894008,13.397421225299468
1660172565412170,38.910505836575794,18.097199969481835,1.1291676203554744
1660172565428171,36.71320668345152,51.850156404974314,0.9460593575952316
1660172565444172,24.567025253681095,112.27588311589216,14.80125123979542
1660172565460172,-11.444266422522333,226.47440299076834,4.974441138323073
1660172565476165,-49.83596551461051,483.6194399938963,-66.43778133821615
1660172565492166,0.2746623941404778,565.4077973601893,-112.21484702830548
1660172565508167,-3.570611123826893,443.09147783627077,-90.6080720225832
1660172565524168,-15.899900816357558,307.10307469291183,-66.07156481269544
1660172565540168,-17.42580300602731,213.83993286030363,-59.1134508278019
1660172565556169,-10.223544670786623,127.41283283741495,-48.00488288700694
1660172565572170,45.624475471122196,-36.89631494621199,28.778515297169406
1660172565588171,85.66414892805369,-306.9199664301518,86.64072632944226
1660172565604171,-15.655756466010416,-575.9670405127031,67.71953917753899
1660172565620172,10.467689021133765,-604.2877851529718,91.5236133363851
1660172565636173,42.38956282902245,-429.78561074235154,105.25673304341217
1660172565652174,-9.918364232852582,-249.24086366063943,57.404440375371905
1660172565668174,-1.983672846570471,-80.170901045243,19.195849546043974
1660172565684175,24.567025253681095,-42.45059891660958,11.810482948043045
1660172565700176,20.477607385366582,-16.1440451667047,2.7771419851987957
1660172565716177,25.543602655069662,6.805523765926637,-0.45777065690094787
1660172565732177,29.633020523384403,31.097886625467254,3.1433585107195086
1660172565748178,29.20576791027679,64.85084306095996,8.758678568703772
1660172565764179,18.463416495002548,122.3468375677121,0.3967345693140487
1660172565780180,-73.15175097276256,331.6395819028003,-43.67132066834529
1660172565796173,-56.91615167467762,544.7775997558556,-109.77340352483407
1660172565812173,-34.149691004806755,517.372396429389,-102.9373617151141
1660172565828174,-33.60036621652557,407.1412222476538,-67.35332265201805
1660172565844175,-27.130540932326085,341.6495002670331,-49.591821164263365
1660172565860176,-14.435034714274707,317.35713740749225,-38.178072785534596
1660172565876176,-10.406652933546866,299.1073472190433,-32.44068055237676
1660172565892177,-12.664988174258042,221.34737163347836,-29.38887617303726
1660172565908178,-13.76363775082018,118.86778057526499,-23.7125200274661
1660172565924179,-12.115663385976859,80.2319371328299,-15.594720378423744
1660172565940179,-6.805523765926637,69.91683833066327,-3.814755474174035
1660172565956180,-2.3498893720911838,-12.115663385976859,23.285267414358714
1660172565972181,80.17090104524323,-209.44533455405508,92.50019073777366
1660172565988182,132.8450446326392,-519.6307316701,101.10627908751076
1660172566004182,-30.792706187533213,-937.6058594644082,49.34767681391622
1660172566020183,-47.27244983596552,-1063.4012359807737,65.2170595864809
1660172566036184,11.444266422522333,-590.493629358358,83.71099412527656
1660172566052185,-123.68963149462115,-152.98695353627818,22.919050888838
1660172566068185,-105.37880521858551,-68.69611657892733,24.26184481574728
1660172566084186,-28.107118333714652,-21.57625696192872,12.664988174258042
1660172566100187,0.5798428320745188,-2.7771419851987957,0.2746623941404778
1660172566116180,19.623102159151586,19.317921721217544,1.983672846570471
1660172566132181,27.98504615854108,61.310749980926175,13.153276874952326
1660172566148182,42.755779354543165,129.97634851606017,27.98504615854108
1660172566164182,20.416571297779683,250.46158541237492,3.997863736934505
1660172566180183,-11.261158159761862,449.0119783321893,-67.23125047684448
1660172566196184,47.57763027389933,527.3823147936218,-94.94163424124531
1660172566212185,78.21774624246609,494.66697184710483,-64.91187914854663
1660172566228185,50.20218204013099,409.7657740138857,-34.57694361791414
1660172566244186,-0.9460593575952316,291.47783627069475,-34.57694361791414
1660172566260187,-31.586175326161765,157.2594796673534,-39.70397497520412
1660172566276188,-10.772869459067579,8.758678568703772,4.9134050507361735
1660172566292188,68.9402609292747,-160.92164492256052,74.31143663691182
1660172566308189,59.723811703669526,-417.4563210498209,73.5790035858704
1660172566324190,-71.99206530861375,-713.3592736705575,20.416571297779683
1660172566340191,-61.12764171816593,-762.4933241779202,20.23346303501944
1660172566356191,62.83665217059615,-567.4219882505531,85.72518501564082
1660172566372192,-128.0842298008697,-213.77889677271673,18.097199969481835
1660172566388193,-131.0749980926223,-57.95376516365309,7.598992904554734
1660172566404194,-69.55062180514233,-26.7032883192187,8.45349813076973
1660172566420194,8.697642481116873,-11.383230334935433,1.9226367589837992
1660172566436187,65.15602349889377,12.115663385976859,-7.049668116273779
1660172566452188,74.43350881208517,69.00129701686137,-4.42511635004189
1660172566468189,36.469062333104375,214.32822156099792,-10.589761196307336
1660172566484190,0.7629510948347615,464.8203250171664,-58.2589456015869
1660172566500190,41.718165865567926,563.9429312581065,-81.39162279697871
1660172566516191,50.99565117875909,521.8280308232243,-66.43778133821615
1660172566532192,29.571984435797503,406.46982528419903,-42.57267109178315
1660172566548193,-1.983672846570471,276.5850308995191,-36.957351033798886
1660172566564193,-16.510261692225413,162.996871900511,-37.62874799725341
1660172566580194,-10.162508583199724,49.65285725185004,-9.063859006637585
1660172566596195,47.943846799420044,-97.5051499198903,55.939574273289054
1660172566612196,77.54634927901134,-342.8702220187686,77.424277103838
1660172566628196,-33.478294041352,-627.6035706111238,35.67559319447605
1660172566644197,-38.056000610361025,-728.8014038300146,49.83596551461051
1660172566660198,49.89700160219718,-538.3688105592432,99.88555733577505
1660172566676199,-1.983672846570471,-328.16052491035316,85.11482413977274
1660172566692199,-147.79888609140153,-114.10696574349595,23.7125200274661
1660172566708200,-58.86930647745476,-45.07515068284124,32.257572289616064
1660172566724201,-10.406652933546866,-27.496757457846797,23.651483939879427
1660172566740202,56.36682688639621,-7.4158846417944915,6.378271152819025
1660172566756225,76.02044708934181,26.031891355763946,-0.9460593575952316
1660172566772226,78.95017929350752,97.93240253299791,-0.2746623941404778
1660172566788227,-25.23842221713585,292.33234149691,-40.13122758831173
1660172566804227,-44.403753719386714,503.8834210727091,-82.85648889906156
1660172566820228,15.960936903944457,561.8066681925688,-84.50446326390465
1660172566836229,34.14969100480653,509.8649576562143,-63.32494087129021
1660172566852230,13.885709925993751,404.6387426565957,-45.92965590905624
1660172566868230,-21.637293049515392,288.54810406652905,-40.07019150072483
1660172566884231,-36.89631494621199,196.38361181048322,-41.0467689021134
1660172566900232,-34.57694361791414,106.96574349584216,-34.149691004806755
1660172566916233,-14.496070801861606,10.284580758373295,-1.983672846570471
1660172566932233,53.19295033188337,-130.46463721675445,67.84161135271233
1660172566948234,123.44548714427401,-369.11573968108655,116.97566186007498
1660172566964235,22.73594262607753,-649.8817425803006,78.82810711833372
1660172566980236,-95.4299229419396,-822.2476539253832,47.45555809872576
1660172566996236,26.886396581978943,-701.579308766308,90.36392767223651
1660172567012237,-47.45555809872599,-335.85107194628813,66.43778133821661
1660172567028238,-79.13328755626753,-67.47539482719162,32.13550011444249
1660172567044239,-62.22629129472807,-21.33211261158158,39.76501106279079
1660172567060239,-3.7537193865873633,1.9226367589837992,26.092927443350845
1660172567076233,40.070191500724604,14.80125123979542,7.354848554207592
1660172567092233,38.849469748988895,27.374685282673227,-1.1902037079423735
1660172567108234,28.351262684061794,59.1134508278019,1.2512397955290453
1660172567124235,26.031891355763946,136.62928206301967,-0.7629510948347615
1660172567140236,-54.5357442587931,342.0157167925536,-39.76501106279102
1660172567156236,-24.933241779201808,518.4100099183643,-71.62584878309303
1660172567172237,40.9246967269396,555.9472037842374,-75.4711223010604
1660172567188238,48.85938811322194,508.70527199206526,-60.70038910505832
1660172567204239,23.7125200274661,404.2114900434881,-41.840238040741724
1660172567220239,-1.6174563210497581,275.3032730601967,-39.64293888761745
1660172567236240,-15.167467765316132,138.76554512855728,-36.652170595864845
1660172567252241,53.74227512016478,-35.00419623102175,35.91973754482319
1660172567268242,127.59594110017542,-243.19829098954756,100.434882124056
1660172567284242,45.380331120775054,-485.1453421835661,78.27878233005276
1660172567300243,-64.36255436026545,-675.0896467536431,44.281681544212915
1660172567316244,15.899900816357558,-642.0691233691921,70.58823529411802
1660172567332244,61.24971389333905,-383.70336461432817,73.5790035858704
1660172567348245,-31.586175326161765,-112.45899137865263,18.219272144655406
1660172567364246,-7.721065079728305,-43.305104142824575,28.412298771648693
1660172567380247,-13.214312962538997,-20.660715648126825,16.876478217746126
1660172567396240,4.730296787975931,-8.392462043183059,8.941786831464015
1660172567412241,11.322194247348762,3.814755474174035,4.119935912108076
1660172567428241,27.130540932326085,29.999237048905115,-1.9226367589837992
1660172567444242,22.003509575036105,99.58037689784078,-16.632333867398984
1660172567460243,-53.43709468223096,305.33302815289517,-55.024032959487386
1660172567476244,-42.38956282902268,516.3958190280005,-82.1850919356068
1660172567492244,25.36049439230942,586.037994964523,-72.96864271000231
1660172567508245,40.74158846417936,513.1609063859005,-46.35690852216385
1660172567524246,5.76791027695117,349.584191653315,-43.73235675593196
1660172567540247,-36.89631494621199,165.37727931639574,-54.29159990844596
1660172567556247,-24.26184481574728,-14.92332341496899,-0.33569848172737693
1660172567572248,79.19432364385466,-262.66880292973224,98.97001602197315
1660172567588249,-16.1440451667047,-559.9145494773786,89.99771114671557
1660172567604250,-92.19501029983962,-776.1043717097732,67.29228656443138
1660172567620250,86.94590676737653,-677.409018081941,95.67406729228651
1660172567636251,-80.59815365835038,-231.17418173495093,22.247653925383247
1660172567652252,-113.4355687800412,-97.13893339436959,34.2107270923932
1660172567668253,-81.69680323491252,-67.23125047684448,39.09361409933604
1660172567684253,-37.994964522774126,-49.713893339436936,28.534370946822264
1660172567700254,22.186617837796575,-34.51590753032747,1.0681315327688026
1660172567716247,54.718852521553345,-10.284580758373295,-12.787060349431613
1660172567732248,71.8699931334404,43.54924849317149,-4.180971999694748
1660172567748249,43.12199588006388,183.01670862897663,-7.049668116273779
1660172567764249,-33.78347447928604,457.3128862439921,-55.3292133974212
1660172567780250,29.755092698557974,596.4141298542763,-82.12405584802013
1660172567796251,67.65850308995232,574.8073548485545,-67.71953917753876
1660172567812252,37.384603646906044,479.5910582131687,-48.73731593804837
1660172567828252,-18.524452582589447,372.7168688487068,-49.591821164263365
1660172567844253,-53.98641947051192,272.31250476844434,-53.98641947051192
1660172567860254,-54.962996871900486,180.51422903791854,-45.807583733882666
1660172567876255,-39.76501106279102,96.28442816815459,-36.28595407034413
1660172567892255,-5.279621576256886,-4.547188525215461,14.557106889448278
1660172567908256,84.38239108873131,-122.46890974288544,99.58037689784078
1660172567924257,145.96780346379774,-326.8177309834439,112.45899137865263
1660172567940258,28.04608224612798,-685.893034256504,45.5634393835353
1660172567956258,-134.61509117265587,-943.7094682230868,-2.7771419851987957
1660172567972259,92.92744335088128,-814.4350347142747,53.98641947051192
1660172567988260,4.852368963149502,-273.96047913328744,49.042496375981955
1660172568004261,-62.16525520714117,-35.67559319447628,34.88212405584795
1660172568020261,-27.496757457846797,4.303044174868319,25.848783093003703
1660172568036255,-8.51453421835663,9.002822919050914,6.8665598535133086
1660172568052255,9.491111619745197,15.655756466010416,-5.096513313496644
1660172568068256,23.468375677118956,57.28236820019811,-4.486152437628789
1660172568084257,32.13550011444249,128.572518501564,-1.6784924086366573
1660172568100257,-16.754406042572555,274.5098039215686,-31.219958800640825
1660172568116258,-7.965209430075447,407.2632944228276,-75.4711223010604
1660172568132259,25.116350041962278,392.4925612268253,-81.75783932249942
1660172568148260,39.21568627450961,322.4841687647822,-62.836652170595926
1660172568164260,37.2014953841458,235.8129243915464,-36.4690623331046
1660172568180261,61.06660563057903,78.27878233005276,18.402380407415876
1660172568196262,69.55062180514233,-138.09414816510252,66.8039978637371
1660172568212263,5.096513313496644,-371.0078583962768,72.05310139620087
1660172568228263,-30.36545357442583,-468.90974288548114,82.61234454871465
1660172568244264,31.342030975814396,-477.4547951476311,108.06439307240407
1660172568260265,-50.26321812771812,-306.1875333791104,40.192263675898175
1660172568276266,-76.3866636148623,-128.6335545891509,5.523765926604028
1660172568292266,-60.33417257953761,-91.40154116121153,8.33142595559616
1660172568308267,-31.219958800640825,-62.836652170595926,15.10643167772946
1660172568324268,-9.613183794918768,-27.679865720607268,6.561379415579495
1660172568340269,1.9226367589837992,19.317921721217544,-5.76791027695117
1660172568356323,12.054627298390187,76.99702449073038,-7.782101167315204
1660172568372324,20.11139085984587,206.0273136491951,-33.72243839169914
1660172568388324,-36.10284580758389,456.82459754329784,-93.35469596398866
1660172568404325,17.730983443961122,544.4724193179218,-90.6080720225832
1660172568420326,50.629434653238604,500.22125581750197,-68.63508049134043
1660172568436327,18.76859693293659,405.0049591821162,-56.61097123674381
1660172568452327,-20.660715648126825,288.1208514534219,-54.596780346379774
1660172568468328,-34.63797970550104,177.82864118409998,-47.94384679942027
1660172568484329,-25.848783093003703,118.44052796215783,-37.933928435187454
1660172568500330,-22.552834363317288,72.29724574654801,-19.9282825970854
1660172568516330,25.116350041962278,-34.69901579308771,33.722438391698915
1660172568532331,86.39658197909512,-289.21950102998403,80.47608148317704
1660172568548332,-24.567025253681095,-602.9449912260625,40.314335851071746
1660172568564333,-72.17517357137399,-782.4521248187991,31.464103150987967
1660172568580333,74.55558098725896,-669.2912184328984,93.96505683985652
1660172568596334,0.6408789196611906,-442.7862973983367,116.97566186007498
1660172568612335,-121.79751277943092,-154.51285572594793,32.86793316548392
1660172568628336,-18.76859693293659,-73.57900358587017,24.26184481574728
1660172568644336,44.52582589456006,-40.558480201419115,1.4343480582895154
1660172568660337,52.76569771877621,-4.42511635004189,-7.049668116273779
1660172568676330,32.80689707789725,32.86793316548392,0.2746623941404778
1660172568692331,18.95170519569683,87.67833981841795,18.402380407415876
1660172568708332,15.594720378423744,208.65186541542698,21.820401312275862
1660172568724332,-27.557793545433697,486.366063935302,-40.07019150072483
1660172568740333,18.280308232242305,659.2202639810789,-86.8238345922025
1660172568756334,61.982146944380474,578.2253757534145,-66.43778133821615
1660172568772335,35.55352101930248,404.3335622186619,-30.36545357442583
1660172568788335,0.5798428320745188,260.8377203021287,-26.58121614404513
1660172568804336,-19.9893186846723,150.85069047074057,-38.60532539864198
1660172568820337,-12.542915999084471,42.38956282902245,-23.529411764705856
1660172568836338,70.46616311894422,-155.18425268940246,57.404440375371905
1660172568852338,32.31860837720296,-446.50949874113076,70.22201876859708
1660172568868339,-72.72449835965517,-719.1577019913025,57.58754863813192
1660172568884340,46.60105287251076,-687.8461890592812,96.83375295643555
1660172568900341,12.298771648737329,-391.8822003509574,81.87991149767322
1660172568916341,-113.06935225452048,-121.24818799114973,5.3406576638437855
1660172568932342,-76.93598840314326,-71.25963225757232,5.76791027695117
1660172568948343,-41.71816586556815,-47.94384679942027,9.55214770733187
1660172568964344,0.6408789196611906,-24.933241779201808,10.345616845960194
1660172568980344,33.4172579537651,1.4343480582895154,2.5940337224383256
1660172568996338,32.13550011444249,42.45059891660935,3.3264667734797513
1660172569012338,-2.227817196917613,99.39726863508076,7.2938124666209205
1660172569028339,-66.49881742580305,272.19043259327054,-11.627374685282575
1660172569044340,-15.716792553597315,519.6917677576866,-70.16098268101018
1660172569060341,33.29518577859153,544.4724193179218,-87.43419546807036
1660172569076341,31.403067063401068,423.9261463340199,-63.996337834744736
1660172569092342,14.190890363927565,295.201037613489,-44.70893415732053
1660172569108343,-6.073090714885211,196.0784313725494,-46.29587243457695
1660172569124343,-19.317921721217544,101.04524299992363,-43.427176317998146
1660172569140344,6.9886320286868795,-48.00488288700694,16.1440451667047
1660172569156345,77.11909666590373,-294.7737850003816,90.05874723430225
1660172569172346,-54.04745555809882,-603.7994964522775,53.25398641947049
1660172569188346,-52.76569771877621,-753.8872358281833,35.91973754482319
1660172569204347,117.40291447318214,-557.9003585870146,86.70176241702939
1660172569220348,-11.566338597695903,-156.16083009079102,27.069504844739413
1660172569236349,5.401693751430457,-44.76997024490743,30.4875257495994
1660172569252349,18.524452582589447,1.6784924086366573,22.430762188143717
1660172569268350,32.13550011444249,29.51094834821083,7.476920729381163
1660172569284351,49.71389333943671,73.39589532310993,1.9226367589837992
1660172569300352,55.87853818570193,145.8457312886244,-7.049668116273779
1660172569316345,-34.82108796826128,316.7467765316246,-47.7607385366598
1660172569332346,-58.686198214694514,549.477378500038,-121.24818799114973
1660172569348346,-36.591134508278174,563.9429312581065,-127.47386892500185
1660172569364347,-26.58121614404513,449.98855573357787,-82.12405584802013
1660172569380348,-8.941786831464015,309.54451819638325,-42.26749065384911
1660172569396349,-0.5798428320745188,180.81940947585235,-32.806897077897474
1660172569412349,4.364080262455218,79.4384679942018,-35.614557106889606
1660172569428350,40.1312275883115,-28.900587472342977,1.9226367589837992
1660172569444351,85.2979324025332,-239.96337834744804,58.80827038986763
1660172569460352,18.341344319828977,-572.8542000457771,73.51796749828372
1660172569476352,15.899900816357558,-693.7666895551995,114.16800183108262
1660172569492353,44.83100633249387,-502.17441062027933,135.46959639887064
1660172569508354,-83.0395971618218,-238.8647287708859,26.337071793697987
1660172569524355,-18.402380407415876,-123.01823453116663,1.0681315327688026
1660172569540355,-1.0681315327688026,-92.25604638742652,-10.955977721828049
1660172569556356,-3.6316472114137923,-64.60669871061259,-3.0212863355459376
1660172569572357,-10.345616845960194,-36.835278858625315,1.6174563210497581
1660172569588358,-15.960936903944457,-0.5188067444876197,2.532997634851654
1660172569604358,-9.67421988250544,45.92965590905601,-5.523765926604028
1660172569620359,18.646524757763018,113.13038834210738,-11.688410772869474
1660172569636383,-36.16388189517056,304.41748683909327,-44.464789806973386
1660172569652383,-29.32784008545036,511.5739681086443,-106.23331044480051
1660172569668384,2.3498893720911838,471.35118638895256,-110.32272831311525
1660172569684385,-17.059586480506596,335.3017471580074,-80.78126192111085
1660172569700386,-22.186617837796575,225.37575341420643,-47.51659418631266
1660172569716386,-17.303730830853738,134.00473029678778,-22.064545662623004
1660172569732387,-2.105745021744042,27.86297398336751,7.721065079728305
1660172569748388,37.689784084840085,-200.41199359121083,53.43709468223051
1660172569764389,-27.191577019912984,-529.2744335088121,62.0431830319676
1660172569780389,24.505989166094423,-697.306782635233,83.2837415121694
1660172569796390,-7.354848554207592,-433.44777599755867,47.57763027389933
1660172569812391,-113.00831616693381,-121.73647669184402,-20.599679560540153
1660172569828392,-67.84161135271233,-73.70107576104374,-11.322194247348762
1660172569844392,-2.227817196917613,-46.23483634699028,1.4343480582895154
1660172569860393,45.319295033188155,-13.153276874952326,1.8005645838102282
1660172569876394,62.83665217059615,39.39879453727008,2.532997634851654
1660172569892395,72.23620965896089,112.45899137865263,16.1440451667047
1660172569908395,-19.9893186846723,345.25062943465355,0.9460593575952316
1660172569924396,8.941786831464015,581.8875410086216,-95.67406729228674
1660172569940397,8.33142595559616,527.260242618448,-110.01754787518121
1660172569956390,-5.462729839017356,376.6842145418477,-69.6726939803159
1660172569972391,-19.317921721217544,239.29198138399352,-44.09857328145267
1660172569988392,-30.914778362706784,120.0885023270007,-37.872892347600555
1660172570004392,-32.31860837720319,30.670634012359642,-26.459143968871558
1660172570020393,-3.875791561760934,-77.30220492866397,17.36476691844041
1660172570036394,61.73800259403333,-321.44655527580676,83.22270542458227
1660172570052394,-9.918364232852582,-636.0875867856871,79.56054016937514
1660172570068395,59.35759517814904,-709.5140001525901,86.2134737163351
1660172570084396,34.821087968261054,-401.5259021896695,73.82314793621754
1660172570100397,-125.82589456015876,-89.99771114671535,0.9460593575952316
1660172570116397,-55.939574273289054,-31.708247501335336,9.796292057679011
1660172570132398,-7.904173342488775,-8.697642481116873,4.730296787975931
1660172570148399,14.312962539101136,7.843137254901876,3.0212863355459376
1660172570164400,28.717479209582507,25.726710917830133,4.974441138323073
1660172570180400,43.976501106278874,56.91615167467762,14.068818188753994
1660172570196401,40.497444113832216,122.04165712977783,14.862287327382319
1660172570212402,-17.60891126878755,332.310978866255,-32.928969253071045
1660172570228403,-22.61387045090396,472.4498359655149,-83.40581368734252
1660172570244403,-1.3122758831159445,477.1496147096973,-82.49027237354085
1660172570260404,-4.547188525215461,425.69619287403657,-53.376058594644064
1660172570276397,-5.279621576256886,344.9454489967193,-25.909819180590375
1660172570292398,-3.6316472114137923,252.04852368963157,-15.594720378423744
1660172570308399,-6.073090714885211,161.83718623636196,-20.721751735713724
1660172570324400,-12.4208438239109,79.01121538109419,-25.909819180590375
1660172570340400,1.1902037079423735,-28.107118333714652,7.598992904554734
1660172570356401,52.033264667734784,-273.7773708705272,67.10917830167091
1660172570372402,-50.56839856565193,-614.9691004806593,52.52155336842907
1660172570388403,-2.7771419851987957,-795.3917753871976,50.08010986495765
1660172570404403,3.936827649347606,-461.7685206378271,43.30510414282435
1660172570420404,-114.96147096971094,-120.57679102769521,2.3498893720911838
1660172570436405,-70.466163118944,-80.35400930800324,12.23773556115043
1660172570452406,0.09155413138023505,-51.42290379186693,7.476920729381163
1660172570468406,32.19653620202939,-38.23910887312127,-5.401693751430457
1660172570484407,41.65712977798103,-17.60891126878755,-6.073090714885211
1660172570500408,59.41863126573571,19.623102159151586,9.185931181811156
1660172570516409,37.01838712138533,121.12611581597639,11.627374685282575
1660172570532409,-10.101472495613052,361.60830090791205,-47.211413748378845
1660172570548410,19.745174334325156,512.8557259479667,-79.01121538109396
1660172570564411,46.29587243457672,507.78973067826337,-59.47966735332261
1660172570580412,28.717479209582507,441.13832303349363,-38.72739757381555
1660172570596405,-3.997863736934505,339.7573815518426,-31.342030975814623
1660172570612405,-16.937514305333025,212.9243915465022,-33.844510566872714
1660172570628406,-20.17242694743254,95.91821164263365,-35.06523231860842
1660172570644407,-18.76859693293659,14.496070801861606,-32.01342793926915
1660172570660408,-13.702601663233281,-77.91256580453182,-14.618142977035177
1660172570676408,40.375371938658645,-310.7652399481194,46.723125047684334
1660172570692409,26.886396581978943,-729.7779812314031,74.31143663691182
1660172570708410,-12.909132524605184,-948.2261387045089,40.9246967269396
1660172570724411,161.71511406118861,-708.0491340505073,104.82948043030456
1660172570740411,-93.65987640192247,-211.58159761959246,36.346990157930804
1660172570756412,-84.26031891355751,-101.47249561303124,11.932555123216616
1660172570772413,6.8665598535133086,-55.939574273289054,14.190890363927565
1660172570788414,24.13977264057371,-33.90554665445961,3.875791561760934
1660172570804414,28.04608224612798,-10.955977721828049,-3.1433585107195086
1660172570820415,25.787747005416804,27.557793545433697,8.941786831464015
1660172570836416,8.6366063935302,90.30289158464939,28.96162355992965
1660172570852417,-17.36476691844041,246.98252841992826,15.838864728770886
1660172570868417,-34.76005188067461,516.5789272907605,-61.310749980926175
1660172570884418,22.003509575036105,570.1075761043721,-86.76279850461583
1660172570900419,32.13550011444249,470.4966811627378,-57.709620813305946
1660172570916412,14.312962539101136,354.7722590981921,-30.914778362706784
1660172570932413,-7.660028992141633,235.32463569085212,-25.05531395437538
1660172570948413,-16.44922560463874,88.77698939497986,-9.369039444571627
1660172570964414,33.722438391698915,-143.89257648584726,54.779888609140016
1660172570980415,24.872205691615136,-471.1680781261923,78.88914320592085
1660172570996416,-56.48889906157024,-760.9674219882504,64.301518272679
1660172571012416,92.01190203707938,-705.0583657587547,83.10063324940893
1660172571028417,-50.62943465323883,-272.8618295567253,34.02761882963296
1660172571044418,-129.06080720225827,-95.00267032883198,5.157549401083315
1660172571060419,-78.461890592813,-57.587548638132375,21.820401312275862
1660172571076419,-35.309376668955565,-43.06095979247743,27.069504844739413
1660172571092420,28.290226596475122,-29.38887617303726,5.462729839017356
1660172571108421,68.63508049134089,-7.17174029144735,-14.92332341496899
1660172571124422,69.24544136720851,48.92042420080861,-3.7537193865873633
1660172571140422,13.946746013580423,173.98336766613238,6.134126802471883
1660172571156423,-29.32784008545036,419.1653315022504,-40.436408026245545
1660172571172424,19.501029983978015,537.0870527199204,-74.3114366369116
1660172571188425,32.31860837720296,473.243305104143,-65.27809567406734
1660172571204425,12.603952086671143,363.62249179827586,-47.63866636148623
1660172571220426,-6.500343327992596,269.19966430151817,-36.34699015793103
1660172571236450,-8.209353780422589,185.94644083314233,-24.322880903333953
1660172571252451,-2.7161058976118966,109.77340352483407,-11.505302510109004
1660172571268451,4.9134050507361735,39.154650186922936,-1.983672846570471
1660172571284452,52.15533684290813,-65.46120393682759,40.80262455176603
1660172571300453,97.3830777447165,-246.61631189440754,72.96864271000231
1660172571316454,10.223544670786623,-499.3667505912872,37.384603646906044
1660172571332454,-29.14473182269012,-694.2549782558938,35.30937666895534
1660172571348455,91.5236133363851,-620.5844205386436,106.78263523308169
1660172571364456,94.39230945296413,-355.13847562371257,126.68039978637353
1660172571380457,-10.101472495613052,-148.83649958037677,46.17380025940315
1660172571396457,24.01770046540014,-69.85580224307614,29.14473182269012
1660172571412458,22.003509575036105,-53.86434729533835,7.782101167315204
1660172571428459,13.519493400473038,-33.478294041352,5.645838101777599
1660172571444460,-3.3264667734797513,-6.317235065232353,7.232776379034021
1660172571460460,-8.819714656290444,36.95735103379866,7.598992904554734
1660172571476461,5.95101853971164,106.23331044480074,-1.983672846570471
1660172571492462,-38.056000610361025,275.97467002365147,-55.75646601052881
1660172571508463,-58.747234302281186,461.0360875867859,-111.36034180209049
1660172571524463,-14.435034714274707,491.3710231174182,-115.87701228351261
1660172571540464,-10.406652933546866,412.26825360494377,-83.71099412527656
1660172571556457,-12.054627298390187,294.89585717555474,-50.873579003585974
1660172571572458,-23.163195239185143,180.08697642481093,-40.497444113832444
1660172571588459,-32.13550011444272,88.5938811322194,-40.680552376592686
1660172571604459,-1.8005645838102282,-16.388189517051842,0.7019150072480898
1660172571620460,70.58823529411802,-213.29060807202245,68.63508049134089
1660172571636461,4.486152437628789,-528.7861448081178,85.05378805218606
1660172571652462,-5.889982452124741,-687.0527199206531,106.59952697032122
1660172571668462,71.80895704585373,-504.12756542305647,129.06080720225827
1660172571684463,-8.6366063935302,-263.40123598077366,69.67269398031613
1660172571700464,-32.01342793926915,-112.88624399176024,20.904859998473967
1660172571716465,10.162508583199724,-70.71030746929114,18.82963302052326
1660172571732465,22.186617837796575,-45.19722285801481,19.195849546043974
1660172571748466,19.439993896391115,-16.815442130159454,19.623102159151586
1660172571764467,13.092240787365427,16.754406042572555,16.2050812542916
1660172571780468,8.6366063935302,71.68688487067993,12.054627298390187
1660172571796468,10.345616845960194,161.53200579842814,-17.36476691844041
1660172571812469,-53.19295033188382,410.0099183642328,-92.56122682536034
1660172571828470,-22.919050888838,530.3730830853742,-123.50652323186091
1660172571844471,-22.003509575036105,463.2944228274969,-107.1488517586024
1660172571860471,-40.741588464179586,333.5927367055774,-77.11909666590373
1660172571876464,-35.00419623102175,221.83566033417264,-57.34340428778523
1660172571892465,-26.092927443350845,134.859235523003,-46.35690852216385
1660172571908466,-12.787060349431613,50.56839856565193,-24.26184481574728
1660172571924467,34.33279926756677,-82.97856107423513,28.900587472342977
1660172571940467,47.6997024490729,-308.87312123292895,63.87426565957139
1660172571956468,-15.10643167772946,-549.2942702372779,67.04814221408424
1660172571972469,30.30441748683893,-604.1046768902115,98.17654688334505
1660172571988470,93.84298466468317,-448.21850919356075,126.863508049134
1660172572004470,12.4208438239109,-200.77821011673154,50.507362478064806
1660172572020471,19.623102159151586,-68.39093614099329,8.575570305943302
1660172572036472,15.594720378423744,-29.816128786144645,-2.410925459678083
1660172572052473,4.60822461280236,-2.288853284504512,3.6316472114137923
1660172572068473,-3.5095750362402214,21.759365224688963,6.439307240405924
1660172572084474,-11.993591210803288,48.493171587701,5.0354772259097444
1660172572100475,-12.603952086671143,89.021133745327,4.42511635004189
1660172572116476,-28.04608224612798,185.824368657969,-8.148317692835917
1660172572132476,-53.13191424429692,411.2306401159685,-62.653543907835456
1660172572148477,-21.69832913710229,491.3710231174182,-95.73510337987341
1660172572164478,-22.369726100556818,414.6486610208285,-83.1006332494087
1660172572180479,-25.787747005416804,307.10307469291183,-59.29655909056237
1660172572196472,-19.317921721217544,213.1074998092622,-46.78416113527123
1660172572212473,-14.007782101167322,132.96711680781254,-47.333485923552416
1660172572228473,-21.637293049515392,54.962996871900486,-51.36186770428026
1660172572244474,-13.275349050125897,-69.42854962996876,-24.933241779201808
1660172572260475,58.13687342641333,-317.6012817578394,50.873579003585746
1660172572276476,41.718165865567926,-573.2814526588845,84.80964370183892
1660172572292476,81.69680323491275,-623.1479362172886,117.40291447318214
1660172572308477,82.67338063630132,-431.1284046692608,120.75989929045545
1660172572324478,-39.276722362096734,-201.6937514305332,36.04180971999676
1660172572340479,-38.056000610361025,-105.98916609445337,7.660028992141633
1660172572356479,-16.08300907911803,-89.02113374532678,4.364080262455218
1660172572372480,7.354848554207592,-65.09498741130687,17.24269474326684
1660172572388481,24.505989166094423,-35.73662928206318,10.772869459067579
1660172572404482,14.740215152208748,1.9226367589837992,1.739528496223329
1660172572420482,-9.002822919050914,46.723125047684334,9.308003356984727
1660172572436483,-27.98504615854108,114.22903791866929,16.510261692225413
1660172572452484,-56.061646448462625,276.2188143739986,-20.660715648126825
1660172572468485,-54.718852521553345,470.8018616006716,-76.93598840314326
1660172572484485,4.303044174868319,465.6748302433816,-69.91683833066304
1660172572500486,2.532997634851654,361.8524452582592,-53.92538338292525
1660172572516510,-20.904859998473967,255.46654459449155,-50.14114595254455
1660172572532510,-20.05035477225897,155.36736095216293,-36.16388189517056
1660172572548511,25.05531395437538,32.257572289616064,8.941786831464015
1660172572564512,72.41931792172136,-157.3205157549403,61.43282215609952
1660172572580513,2.166781109330941,-385.83962767986577,56.48889906157001
1660172572596513,-0.5798428320745188,-543.0075532158389,60.45624475471095
1660172572612514,102.26596475165934,-484.96223392080583,91.15739681086461
1660172572628515,26.764324406805372,-277.9888609140153,44.281681544212915
1660172572644516,-43.91546501869243,-91.34050507362463,5.828946364538069
1660172572660516,-15.472648203250174,-51.48393987945383,14.373998626688035
1660172572676517,4.669260700389032,-29.571984435797503,13.946746013580423
1660172572692518,16.998550392919697,-0.9460593575952316,4.669260700389032
1660172572708519,5.889982452124741,35.004196231021524,-2.4719615472647547
1660172572724519,-24.750133516441565,88.16662851911224,0.213626306553806
1660172572740520,-81.26955062180514,190.8903639276723,-16.08300907911803
1660172572756521,-74.92179751277945,409.5826657511252,-59.1134508278019
1660172572772522,-10.833905546654478,480.8728160524911,-82.55130846112752
1660172572788522,14.129854276340893,411.96307316700995,-67.47539482719162
1660172572804523,47.27244983596529,287.20531013962,-25.543602655069662
1660172572820524,80.17090104524323,135.28648813611062,9.73525597009234
1660172572836517,53.68123903257765,-13.092240787365427,15.960936903944457
1660172572852518,36.22491798275723,-210.48294804303032,35.18730449378177
1660172572868518,-11.627374685282575,-420.3250171663997,48.31006332494053
1660172572884519,33.96658274204606,-540.3830014496073,104.1580834668498
1660172572900520,72.84657053482897,-474.1588464179447,138.21622034027632
1660172572916521,-9.796292057679011,-281.4068818188755,53.131914244296695
1660172572932521,-9.063859006637585,-113.67971313038834,4.42511635004189
1660172572948522,-3.4485389486533222,-84.56549935149155,-6.683451590753066
1660172572964523,4.364080262455218,-72.84657053482874,-1.3122758831159445
1660172572980524,11.07804989700162,-53.92538338292525,6.439307240405924
1660172572996524,0.45777065690094787,-24.994277866788707,6.195162890058782
1660172573012525,-18.402380407415876,14.862287327382319,9.73525597009234
1660172573028526,-38.178072785534596,73.88418402380421,10.955977721828049
1660172573044527,-44.342717631799815,172.03021286335525,-3.997863736934505
1660172573060527,-94.5143816281377,435.8281834134432,-63.32494087129021
1660172573076528,-27.80193789578084,583.5355153734649,-108.36957351033811
1660172573092529,-10.528725108720437,515.663385976959,-95.7961394674603
1660172573108530,-16.510261692225413,417.9446097505147,-67.17021438925758
1660172573124530,-15.533684290836845,348.4245059891664,-43.427176317998146
1660172573140531,-10.589761196307336,320.10376134889793,-38.78843366140245
1660172573156524,-19.501029983978015,296.11657892729045,-46.72312504768456
1660172573172525,-30.243381399252257,214.75547417410553,-44.15960936903957
1660172573188526,-21.637293049515392,77.54634927901134,-14.251926451514464
1660172573204527,35.61455710688938,-81.33058670939181,47.02830548561815
1660172573220527,117.89120317387642,-322.9114213778896,98.2986190585184
1660172573236528,38.0560006103608,-644.5716029602502,73.70107576104374
1660172573252529,-77.66842145418468,-837.7508201724268,48.85938811322194
1660172573268530,100.25177386129553,-723.1250476844434,114.35111009384309
1660172573284530,99.6414129854279,-384.19165331502245,144.07568474860773
1660172573300531,-59.05241474021523,-147.8599221789882,36.591134508277946
1660172573316532,-25.05531395437538,-66.6819256885633,22.186617837796575
1660172573332533,-20.05035477225897,-50.934615091172645,7.2938124666209205
1660172573348533,-12.359807736324,-31.158922713053926,12.848096437018285
1660172573364534,14.373998626688035,-4.852368963149502,9.918364232852582
1660172573380535,19.867246509498727,40.9246967269396,6.561379415579495
1660172573396535,2.227817196917613,112.6420996414131,10.772869459067579
1660172573412536,-23.651483939879427,235.9349965667202,-13.64156557564661
1660172573428537,-62.531471732661885,482.45975432974774,-67.41435873960472
1660172573444538,17.42580300602731,538.4908827344166,-89.63149462119463
1660172573460538,32.92896925307082,418.0056458381018,-75.41008621347373
1660172573476532,18.219272144655406,273.1670099946591,-53.31502250705739
1660172573492532,-9.369039444571627,208.4687571526665,-52.58258945601597
1660172573508533,-20.782787823300396,253.45235370412775,-58.2589456015869
1660172573524534,-13.031204699778755,311.07042038605323,-47.028305485618375
1660172573540535,-23.102159151598244,311.6197451743342,-38.42221713588174
1660172573556535,-53.498130769817635,245.76180666819255,-40.37537193865887
1660172573572536,-75.28801403830016,204.37933928435223,-50.32425421530479
1660172573588537,-58.01480125123976,153.7193865873196,-18.280308232242305
1660172573604538,8.45349813076973,35.126268406195095,46.47898069733719
1660172573620538,85.66414892805369,-115.69390402075237,96.22339208056792
1660172573636539,124.97138933394353,-282.6886396581981,91.46257724879842
1660172573652540,108.12542915999074,-518.8982986190586,60.21210040436381
1660172573668541,-52.64362554360264,-797.2228580148012,19.623102159151586
1660172573684541,-44.58686198214696,-830.1213092240787,40.80262455176603
1660172573700542,78.76707103074705,-554.0550850690472,112.33691920347928
1660172573716543,32.13550011444249,-350.13351644159616,105.0736247806517
1660172573732544,-81.57473105973895,-120.08850232700092,26.58121614404513
1660172573748544,-41.53505760280768,-61.00556954299236,26.214999618524416
1660172573764545,-38.84946974898912,-46.906233310444804,19.9282825970854
1660172573780546,-12.481879911497572,-25.665674830243233,12.481879911497572
1660172573796539,8.941786831464015,37.2014953841458,3.692683299000464
1660172573812540,6.9886320286868795,156.95429922941912,-4.486152437628789
1660172573828540,-63.50804913405045,462.86717021438926,-55.75646601052881
1660172573844541,9.308003356984727,673.5637445639732,-93.47676813916223
1660172573860542,64.24048218509233,642.9236285954071,-88.41077286945892
1660172573876543,29.26680399786369,496.9253070878158,-70.5271992065309
1660172573892543,-34.3938353551539,362.82902265964776,-70.09994659342328
1660172573908544,-62.9587243457695,272.9839017318991,-67.17021438925758
1660172573924545,-48.554207675288126,191.68383306630085,-47.8217746242467
1660172573940546,-28.900587472342977,102.51010910200648,-33.72243839169914
1660172573956546,-18.463416495002548,30.914778362706784,-17.48683909361398
1660172573972547,25.29945830472252,-91.88982986190581,54.169527733271934
1660172573988548,129.12184328984495,-307.9575799191273,119.53917753871974
1660172574004549,43.9154650186922,-639.3224994277866,73.64003967345707
1660172574020549,-106.29434653238741,-888.5938811322194,11.566338597695903
1660172574036550,104.64637216754409,-815.228503852903,66.31570916304281
1660172574052551,74.55558098725896,-456.94666971847096,118.86778057526499
1660172574068552,-91.70672159914534,-116.12115663385975,24.689097428854666
1660172574084552,0.5188067444876197,-44.892042420081,26.153963530937517
1660172574100553,39.27672236209651,-23.7125200274661,11.07804989700162
1660172574116577,42.32852674143578,-2.227817196917613,-0.09155413138023505
1660172574132578,38.727397573815324,36.22491798275723,1.6174563210497581
1660172574148578,19.9893186846723,98.90897993438648,14.740215152208748
1660172574164579,-57.09925993743809,289.2195010299838,0.7019150072480898
1660172574180580,-21.087968261234437,565.8960860608836,-74.49454489967184
1660172574196581,24.07873655298681,643.5339894712747,-107.27092393377598
1660172574212581,32.74586099031035,593.1181811245901,-79.316395819028
1660172574228582,13.824673838406852,479.34691386282157,-40.741588464179586
1660172574244583,-32.44068055237676,334.20309758144504,-42.20645456626244
1660172574260584,-61.12764171816593,206.69871061264985,-61.493858243686645
1660172574276584,-44.95307850766767,117.64705882352928,-63.44701304646378
1660172574292585,-24.811169604028237,49.89700160219718,-43.183031967651004
1660172574308586,1.2512397955290453,-17.303730830853738,-3.1433585107195086
1660172574324586,74.3724727244985,-191.07347219043254,71.19859616998565
1660172574340587,118.98985275043879,-455.35973144121454,86.76279850461606
1660172574356588,-1.5564202334630863,-764.507515068284,26.6422522316318
1660172574372589,8.392462043183059,-797.7111467154955,29.571984435797503
1660172574388589,122.10269321736496,-510.84153505760287,115.38872358281833
1660172574404590,72.17517357137422,-229.77035172045476,103.05943389028789
1660172574420591,-15.594720378423744,-139.62005035477227,58.319981689173346
1660172574436584,14.435034714274707,-23.773556115052997,27.496757457846797
1660172574452585,38.36118104829461,8.45349813076973,10.284580758373295
1660172574468586,23.102159151598244,36.77424277103819,-1.4953841458761872
1660172574484586,7.782101167315204,95.30785076676602,-16.815442130159454
1660172574500587,-49.34767681391622,245.0904097047378,-58.56412603952094
1660172574516588,-73.70107576104374,381.1398489356834,-89.99771114671535
1660172574532589,-50.14114595254455,436.6216525520713,-90.97428854810391
1660172574548589,-16.815442130159454,432.7763790341037,-75.83733882658112
1660172574564590,-4.669260700389032,389.4407568474862,-59.29655909056237
1660172574580591,-17.48683909361398,323.21660181582365,-53.31502250705739
1660172574596592,-36.835278858625315,218.90592813000694,-48.18799114976741
1660172574612592,-40.98573281452673,118.56260013733117,-39.82604715037769
1660172574628593,-32.99000534065772,47.39452201113886,-17.42580300602731
1660172574644594,35.85870145723652,-44.15960936903957,44.7699702449072
1660172574660595,108.06439307240407,-242.221713588159,102.44907301441981
1660172574676595,60.88349736781856,-538.9791714351111,91.27946898603795
1660172574692596,-33.90554665445961,-740.642404821851,60.70038910505809
1660172574708597,73.70107576104374,-656.1684596017394,113.06935225452071
1660172574724598,40.9246967269396,-451.45342183566027,121.49233234149688
1660172574740598,-96.28442816815459,-182.8946364538033,36.65217059586462
1660172574756591,-46.17380025940338,-106.23331044480051,36.83527885862509
1660172574772592,-25.787747005416804,-89.93667505912867,30.30441748683893
1660172574788593,24.01770046540014,-76.44769970244897,25.787747005416804
1660172574804594,74.18936446173802,-53.19295033188382,4.547188525215461
1660172574820594,84.93171587701227,-6.8665598535133086,-7.476920729381163
1660172574836595,55.45128557259477,64.66773479819949,-17.66994735637445
1660172574852596,-59.967956054016895,285.8625162127105,-70.77134355687804
1660172574868597,-85.9693293659875,520.0579842832076,-114.77836270695047
1660172574884597,-15.228503852903032,582.9861905851835,-119.3560692759595
1660172574900598,2.655069810025225,549.0501258869303,-102.20492866407267
1660172574916599,-24.01770046540014,454.07797360189215,-85.9693293659875
1660172574932600,-56.00061036087595,319.49340047302985,-76.69184405279611
1660172574948600,-56.91615167467762,171.23674372472715,-61.67696650644689
1660172574964601,-37.56771190966674,68.32990005340662,-45.07515068284124
1660172574980602,-16.876478217746126,-14.92332341496899,-15.899900816357558
1660172574996603,70.6492713817047,-212.80231937132817,60.15106431677714
1660172575012603,121.61440451667067,-567.1168078126193,99.58037689784078
1660172575028604,-22.980086976424673,-891.5846494239718,67.35332265201805
1660172575044605,77.79049362935848,-811.5663385976959,68.45197222858042
1660172575060606,81.025406271458,-413.42793926909303,125.88693064774543
1660172575076599,-63.44701304646378,-112.5810635538262,26.031891355763946
1660172575092599,-33.41725795376533,14.435034714274707,19.867246509498727
1660172575108600,36.591134508277946,55.87853818570193,17.120622568093268
1660172575124601,50.629434653238604,90.18081940947604,3.692683299000464
1660172575140602,37.689784084840085,148.53131914244295,-5.0354772259097444
1660172575156602,-4.60822461280236,227.20683604180977,-13.092240787365427
1660172575172603,-63.50804913405045,423.1326771953918,-47.57763027389956
1660172575188604,-26.459143968871558,518.6541542687114,-87.19005111772321
1660172575204605,21.33211261158158,462.5009536888688,-88.65491721980607
1660172575220605,44.89204242008077,364.47699702449063,-65.8274204623483
1660172575236606,56.000610360875726,295.81139848935663,-50.7515068284124
1660172575252607,43.18303196765078,260.89875638971534,-51.239795529106686
1660172575268608,20.17242694743254,194.12527656977227,-37.68978408484031
1660172575284608,8.758678568703772,84.0772106507975,-6.9886320286868795
1660172575300609,38.17807278553437,-65.46120393682759,52.39948119325527
1660172575316610,61.24971389333905,-284.45868619821476,88.47180895704605
1660172575332611,-17.36476691844041,-561.8066681925688,56.24475471122287
1660172575348611,-65.94949263752187,-692.9732204165712,20.782787823300396
1660172575364612,78.03463797970562,-606.6681925688565,71.01548790722518
1660172575380613,-56.91615167467762,-319.00511177233534,39.21568627450961
1660172575396637,-101.89974822613885,-122.2247653925383,5.95101853971164
1660172575412637,-63.32494087129021,-87.06797894254964,6.195162890058782
1660172575428638,-21.210040436408008,-70.58823529411757,2.532997634851654
1660172575444639,16.32715342946517,-51.117723353933116,-0.9460593575952316
1660172575460640,60.761425192644765,-10.345616845960194,1.3733119707026162
1660172575476640,75.53215838864753,66.74296177615042,7.782101167315204
1660172575492641,-16.998550392919697,270.60349431601435,-22.73594262607753
1660172575508642,-24.444953078507524,524.391546501869,-75.04386968795302
1660172575524643,41.8402380407415,581.460288395514,-81.08644235904467
1660172575540643,44.34271763179959,541.0543984130618,-65.15602349889377
1660172575556644,10.101472495613052,451.2092774853136,-52.338445105668825
1660172575572645,-33.29518577859176,334.63035019455265,-49.774929427023835
1660172575588646,-59.78484779125665,285.0690470740824,-51.42290379186693
1660172575604646,-57.09925993743809,237.58297093156352,-33.78347447928604
1660172575620647,-43.67132066834529,147.4937056534677,-20.477607385366582
1660172575636648,-34.21072709239343,87.98352025635177,-23.651483939879427
1660172575652649,-14.98435950255589,69.12336919203517,-19.01274128328373
1660172575668649,-1.8616006713969,15.228503852903032,8.45349813076973
1660172575684650,65.52224002441471,-146.57816433966582,78.95017929350752
1660172575700651,131.0139620050354,-419.3484397650111,103.12046997787456
1660172575716644,-10.284580758373295,-759.1363393606468,50.629434653238604
1660172575732645,-55.14610513466096,-919.4781414511331,28.717479209582507
1660172575748645,131.38017853055635,-678.5076676585031,103.42565041580838
1660172575764646,21.881437399862534,-301.182574196994,113.49660486762787
1660172575780647,-39.64293888761745,-123.81170366979472,34.63797970550081
1660172575796648,-2.655069810025225,-18.341344319828977,28.290226596475122
1660172575812648,6.622415503166167,8.270389868009488,13.885709925993751
1660172575828649,12.664988174258042,29.999237048905115,-3.2043945983061803
1660172575844650,17.303730830853738,55.08506904707383,-9.918364232852582
1660172575860651,-9.246967269398056,145.47951476310345,-14.190890363927565
1660172575876651,-44.8310063324941,333.9589532310979,-41.840238040741724
1660172575892652,-19.9893186846723,449.86648355840407,-60.88349736781879
1660172575908653,2.288853284504512,463.1113145647364,-56.00061036087595
1660172575924654,-0.6408789196611906,425.3299763485161,-46.66208896009766
1660172575940654,-8.819714656290444,353.30739299610923,-41.16884107728697
1660172575956655,-12.176699473563758,240.0854505226216,-37.01838712138556
1660172575972656,-17.730983443961122,113.49660486762787,-33.966582742046285
1660172575988657,0.5188067444876197,-13.214312962538997,1.8005645838102282
1660172576004657,100.98420691233696,-191.56176089112682,85.42000457770655
1660172576020658,66.13260090028234,-433.44777599755867,89.50942244602129
1660172576036651,-30.243381399252257,-670.3898680094605,63.32494087129044
1660172576052652,16.388189517051842,-650.1869230182344,77.85152971694515
1660172576068653,26.276035706111088,-438.4527351796751,106.72159914549502
1660172576084653,-101.10627908751053,-225.55886167696667,31.464103150987967
1660172576100654,-75.22697795071326,-83.52788586251609,5.279621576256886
1660172576116655,-19.256885633630873,-47.63866636148623,9.002822919050914
1660172576132656,25.970855268177274,-14.190890363927565,13.275349050125897
1660172576148656,48.06591897459339,18.524452582589447,2.8381780727854675
1660172576164657,55.69542992294191,50.75150682841195,-4.974441138323073
1660172576180658,44.037537193865774,106.17227435721361,3.570611123826893
1660172576196659,-50.873579003585974,277.74471656366813,-0.2746623941404778
1660172576212659,-42.14541847867554,521.5838864728771,-65.94949263752187
1660172576228660,-16.632333867398984,530.6172274357214,-87.6783398184175
1660172576244661,-10.650797283894008,440.9552147707336,-69.73373006790257
1660172576260662,-0.9460593575952316,362.5238422217135,-52.94880598153668
1660172576276662,-3.875791561760934,290.5622949568933,-49.40871290150312
1660172576292663,-16.26611734187827,209.62844281681555,-49.652857251850264
1660172576308664,-27.191577019912984,114.16800183108262,-41.47402151522101
1660172576324665,-25.48256656748299,24.933241779201808,-20.17242694743254
1660172576340665,33.3562218661782,-106.35538261997408,43.79339284351863
1660172576356659,110.74998092622263,-344.76234073395904,103.79186694132932
1660172576372659,-4.119935912108076,-666.7277027542534,70.77134355687804
1660172576388660,-69.48958571755543,-811.2001220721752,28.656443121995835
1660172576404661,72.11413748378754,-614.2366674296179,78.95017929350752
1660172576420662,-92.07293812466605,-136.07995727473872,32.257572289616064
1660172576436662,-65.40016784924092,11.627374685282575,32.13550011444249
1660172576452663,2.4719615472647547,46.723125047684334,32.379644464789635
1660172576468664,38.971541924162466,60.21210040436381,24.933241779201808
1660172576484665,45.502403295948625,67.2312504768447,13.153276874952326
1660172576500665,52.46051728084194,86.39658197909512,6.683451590753066
1660172576516666,4.974441138323073,146.82230869001296,7.354848554207592
1660172576532667,-22.980086976424673,343.2364385442893,-8.45349813076973
1660172576548668,-9.613183794918768,485.9388113221944,-58.07583733882666
1660172576564668,3.0823224231326094,504.98207064927146,-67.9636835278859
1660172576580669,13.946746013580423,496.3149462119477,-51.5449759670405
1660172576596670,10.528725108720437,446.4484626535441,-42.999923704890534
1660172576612671,-3.814755474174035,328.9539940489817,-44.037537193866
1660172576628671,-17.181658655680167,207.0649271381708,-45.44136720836195
1660172576644672,-19.867246509498727,131.99053940642398,-42.45059891660958
1660172576660673,-11.20012207217519,75.715266651408,-39.520866712443876
1660172576676666,-2.227817196917613,-0.8850232700083325,-29.20576791027679
1660172576692667,37.87289234760033,-131.13603418020898,33.05104142824439
1660172576708667,137.30067902647443,-332.86030365453576,99.58037689784078
1660172576724668,61.127641718165705,-622.5375753414207,74.3724727244985
1660172576740669,-69.18440527962161,-869.1233691920347,30.914778362706784
1660172576756670,105.68398565651933,-782.6962691691463,92.92744335088128
1660172576772670,75.53215838864753,-375.8907454032196,113.74074921797501
1660172576788671,-56.183718623636196,-93.04951552605462,29.999237048905115
1660172576804672,-32.44068055237676,-39.58190280003055,26.153963530937517
1660172576820673,-18.402380407415876,-26.82536049439227,5.95101853971164
1660172576836673,16.876478217746126,-2.8992141603723667,-7.354848554207592
1660172576852674,19.501029983978015,55.634393835354786,-13.336385137712568
1660172576868675,-14.373998626688035,167.6356145571067,-20.477607385366582
1660172576884676,-54.596780346379774,397.8027008468757,-72.5413900968947
1660172576900676,-13.092240787365427,512.4895094224462,-93.35469596398866
1660172576916677,19.01274128328373,467.1396963454645,-74.2504005493247
1660172576932678,19.378957808804444,345.0064850843064,-51.48393987945383
1660172576948679,-7.660028992141633,186.80094605935756,-28.473334859235365
1660172576964679,23.041123064011572,-1.6174563210497581,31.342030975814396
1660172576980680,55.32921339742097,-263.5843442435339,81.33058670939226
1660172576996704,-32.25757228961629,-541.603723201343,70.58823529411802
1660172577012704,10.040436408026153,-607.8278782330053,86.82383459220273
1660172577028705,39.76501106279079,-406.10360875867855,93.47676813916223
1660172577044706,-59.35759517814904,-197.42122529945823,34.63797970550081
1660172577060707,-101.41145952544457,-62.34836346990164,6.073090714885211
1660172577076707,-52.76569771877621,-27.557793545433697,7.537956816968062
1660172577092708,12.4208438239109,-8.6366063935302,-8.209353780422589
1660172577108709,48.06591897459339,30.36545357442583,-20.23346303501944
1660172577124710,-13.397421225299468,166.2317845426105,-23.285267414358714
1660172577140710,-45.38033112077528,407.9346913862819,-58.13687342641333
1660172577156711,-10.833905546654478,548.7449454489965,-83.40581368734252
1660172577172712,12.848096437018285,566.9336995498593,-83.22270542458227
1660172577188713,5.706874189364498,493.62935835812914,-66.01052872510877
1660172577204713,-21.637293049515392,383.459220263981,-59.1134508278019
1660172577220714,-47.88281071183337,279.69787136644527,-64.85084306095973
1660172577236715,-55.87853818570238,216.9527733272298,-57.587548638132375
1660172577252716,-44.09857328145267,185.64126039520852,-38.23910887312127
1660172577268716,-26.58121614404513,139.13176165407776,-24.26184481574728
1660172577284717,-13.702601663233281,89.9366750591289,-21.57625696192872
1660172577300718,-2.410925459678083,45.07515068284101,-22.919050888838
1660172577316711,2.3498893720911838,-32.928969253071045,-5.645838101777599
1660172577332712,63.63012130922425,-209.93362325474936,76.56977187762277
1660172577348713,157.50362401770053,-473.12123292896945,115.93804837109928
1660172577364713,3.4485389486533222,-835.4314488441289,61.67696650644666
1660172577380714,-67.23125047684448,-969.4666971847105,21.210040436408008
1660172577396715,154.57389181353483,-695.0484473945219,117.76913099870308
1660172577412716,18.70756084534969,-272.8618295567253,106.41641870756075
1660172577428716,-65.94949263752187,-75.10490577553969,49.591821164263365
1660172577444717,53.25398641947049,-26.337071793697987,70.77134355687804
1660172577460718,69.91683833066327,0.8239871824216607,32.440680552376534
1660172577476719,80.78126192111085,19.9893186846723,-8.697642481116873
1660172577492719,53.98641947051192,64.85084306095996,-23.224231326771815
1660172577508720,-46.29587243457695,243.56450751506827,-43.61028458075839
1660172577524721,-79.49950408178825,437.9034103913941,-90.30289158464939
1660172577540722,-58.86930647745476,491.73723964293913,-105.25673304341194
1660172577556722,-26.886396581978943,450.5989166094455,-83.83306630045013
1660172577572723,-12.664988174258042,356.05401693751446,-61.67696650644689
1660172577588724,-22.73594262607753,219.33318074311455,-47.333485923552416
1660172577604725,-29.633020523384403,87.9224841687651,-35.73662928206318
1660172577620725,-26.214999618524416,6.500343327992596,-21.210040436408008
1660172577636718,12.664988174258042,-60.33417257953761,11.383230334935433
1660172577652719,56.12268253604907,-163.42412451361884,53.07087815671002
1660172577668720,76.32562752727563,-351.1100938429847,77.3022049286642
1660172577684721,-28.16815442130155,-546.3035019455253,50.38529030289146
1660172577700721,1.739528496223329,-607.5226977950715,76.63080796520944
1660172577716722,64.54566262302615,-418.9822232394904,105.19569695582504
1660172577732723,-12.115663385976859,-129.4880598153659,50.812542915999074
1660172577748724,19.562066071564686,-16.632333867398984,38.42221713588151
1660172577764724,29.20576791027679,9.246967269398056,16.876478217746126
1660172577780725,29.38887617303726,24.26184481574728,6.134126802471883
1660172577796726,25.909819180590375,38.48325322346818,4.119935912108076
1660172577812727,15.10643167772946,64.11841000991853,0.6408789196611906
1660172577828727,-37.50667582207984,185.51918822003472,-30.4875257495994
1660172577844728,-86.76279850461583,398.53513389791715,-85.29793240253298
1660172577860729,-61.67696650644689,498.5732814526591,-107.51506828412312
1660172577876730,-28.595407034408936,460.2426184481578,-89.63149462119463
1660172577892730,-9.430075532158298,365.4535744258792,-64.1794460975052
1660172577908731,-18.82963302052326,293.3699549858852,-59.90691996643022
1660172577924732,-28.839551384756078,245.94491493095302,-61.615930418860216
1660172577940733,-29.877164873731545,178.2558937972076,-57.404440375371905
1660172577956726,-31.89135576409558,86.57969024185559,-52.09430075532168
1660172577972726,-18.58548867017612,-30.975814450293683,-13.397421225299468
1660172577988727,71.62584878309326,-220.4318303196767,74.31143663691182
1660172578004728,63.99633783474519,-495.0942244602122,99.45830472266744
1660172578020729,-37.3235675593196,-747.9667353322652,63.69115739681092
1660172578036729,50.32425421530479,-759.5025558861676,73.02967879758944
1660172578052730,99.15312428473362,-493.5072861829558,125.88693064774543
1660172578068731,-6.378271152819025,-134.92027161058968,52.82673380636288
1660172578084732,31.70824750133511,-17.120622568093268,32.01342793926892
1660172578100732,26.764324406805372,16.876478217746126,1.3122758831159445
1660172578116733,24.13977264057371,35.61455710688938,-9.430075532158298
1660172578132734,12.054627298390187,67.90264744029946,-4.9134050507361735
1660172578148735,-8.026245517662346,133.82162203402777,1.5564202334630863
1660172578164735,-57.09925993743809,322.4841687647822,-21.45418478675515
1660172578180736,-39.215686274509835,505.77553978789956,-73.76211184863041
1660172578196737,-22.186617837796575,502.2964827954529,-74.55558098725874
1660172578212738,-8.819714656290444,424.7806515602347,-46.47898069733742
1660172578228738,3.5095750362402214,354.40604257267114,-28.778515297169406
1660172578244739,0.33569848172737693,277.9278248264286,-23.651483939879427
1660172578260740,-9.613183794918768,179.53765163652997,-17.914091706721592
1660172578276733,-14.129854276340893,82.00198367284656,-15.045395590142562
1660172578292734,-6.500343327992596,-38.97154192416269,6.927595941100208
1660172578308735,50.446326390478134,-246.79942015716802,56.12268253604907
1660172578324735,-14.92332341496899,-526.2836652170595,47.21141374837862
1660172578340736,-34.88212405584818,-706.706340123598,38.23910887312104
1660172578356737,82.73441672388799,-613.2600900282293,68.75715266651423
1660172578372738,-37.994964522774126,-260.95979247730224,38.36118104829461
1660172578388738,-76.63080796520944,-91.64568551155867,14.068818188753994
1660172578404739,-17.059586480506596,-60.090028229190466,20.17242694743254
1660172578420740,47.51659418631243,-37.07942320897246,6.622415503166167
1660172578436741,62.409399557488086,0.45777065690094787,-7.537956816968062
1660172578452741,34.14969100480653,76.63080796520944,-4.058899824521177
1660172578468742,-35.431448844129136,248.9356832227054,-18.82963302052326
1660172578484743,-26.153963530937517,451.75860227359453,-67.35332265201805
1660172578500743,10.955977721828049,516.2737468528267,-85.42000457770655
1660172578516744,31.70824750133511,473.67055771725063,-74.61661707484541
1660172578532745,24.994277866788707,389.8069733730067,-56.48889906157024
1660172578548746,-2.8381780727854675,311.31456473640037,-48.79835202563527
1660172578564746,-21.57625696192872,254.3678950179292,-48.49317158770123
1660172578580747,-27.74090180819394,212.13092240787364,-46.17380025940338
1660172578596771,-26.886396581978943,153.35317006179912,-39.093614099336264
1660172578612772,-17.36476691844041,78.15671015487942,-30.914778362706784
1660172578628772,-6.622415503166167,10.650797283894008,-21.69832913710229
1660172578644773,32.19653620202939,-95.61303120469984,22.064545662623004
1660172578660774,91.15739681086461,-287.44945448996737,71.80895704585373
1660172578676775,64.54566262302615,-607.0954451819639,66.31570916304281
1660172578692775,-43.61028458075839,-889.9366750591287,54.779888609140016
1660172578708776,40.86366063935293,-874.4335088120852,105.01258869306503
1660172578724777,74.86076142519278,-599.4048981460289,126.61936369878686
1660172578740778,-100.31280994888243,-213.5957885099565,24.933241779201808
1660172578756778,-52.58258945601597,-140.3524834058137,15.777828641183987
1660172578772779,-16.876478217746126,-114.22903791866952,13.336385137712568
1660172578788780,21.14900434882111,-81.51369497215228,16.693369954985883
1660172578804781,56.12268253604907,-38.178072785534596,7.660028992141633
1660172578820781,67.29228656443138,19.80621042191183,-0.3967345693140487
1660172578836782,32.562752727550105,98.4206912336922,5.462729839017356
1660172578852783,-52.216372930495254,256.198977645533,-3.875791561760934
1660172578868784,-51.48393987945383,514.1985198748762,-50.873579003585974
1660172578884784,20.599679560540153,571.2672617685207,-79.07225146868086
1660172578900785,24.200808728160382,504.3717097734034,-78.52292668039968
1660172578916778,16.26611734187827,427.1610589761194,-63.26390478370331
1660172578932779,3.0823224231326094,323.82696269169173,-46.35690852216385
1660172578948780,-10.772869459067579,196.50568398565656,-34.271763179980326
1660172578964780,-12.23773556115043,71.13756008239898,-20.17242694743254
1660172578980781,30.914778362706784,-64.78980697337306,31.403067063401068
1660172578996782,93.17158770122842,-277.9888609140153,83.2837415121694
1660172579012783,3.2654306858930795,-552.4681467917908,58.197909514
1660172579028783,-62.714579995422355,-746.8070496681162,39.58190280003032
1660172579044784,69.48958571755566,-613.8094148165103,77.85152971694515
1660172579060785,30.60959792477297,-336.58350499732956,77.11909666590373
1660172579076786,-99.76348516060125,-114.22903791866952,6.439307240405924
1660172579092786,-64.1184100099183,-67.9636835278859,8.270389868009488
1660172579108787,-31.586175326161765,-56.061646448462625,6.195162890058782
1660172579124788,19.378957808804444,-43.244068055237676,-0.7629510948347615
1660172579140789,39.82604715037746,-15.777828641183987,-10.467689021133765
1660172579156789,23.163195239185143,37.32356755931937,-0.6408789196611906
1660172579172790,-0.5188067444876197,111.17723353933025,11.932555123216616
1660172579188791,-54.5357442587931,315.0988021667813,-13.58052948805971
1660172579204792,12.664988174258042,532.5703822384985,-67.84161135271233
1660172579220792,47.02830548561815,554.2381933318075,-78.52292668039968
1660172579236786,38.971541924162466,502.11337453269243,-57.16029602502476
1660172579252786,6.378271152819025,432.2880903334094,-37.3235675593196
1660172579268787,-27.98504615854108,330.11367971313075,-34.149691004806755
1660172579284788,-43.183031967651004,225.19264515144596,-39.15465018692316
1660172579300789,-35.91973754482342,144.4419012741282,-36.16388189517056
1660172579316789,-25.42153047989609,74.92179751277945,-32.50171663996343
1660172579332790,-13.031204699778755,-20.294499122606112,-0.03051804379333589
1660172579348791,91.70672159914557,-264.6219577325094,86.64072632944226
1660172579364791,57.221332112611435,-620.4013122758831,68.39093614099374
1660172579380792,-141.63424124513608,-906.416418707561,0.15259021896690683
1660172579396793,98.54276340886554,-861.5548943312733,33.3562218661782
1660172579412794,35.91973754482319,-499.48882276646077,69.00129701686137
1660172579428794,-122.10269321736473,-176.6079194323645,3.692683299000464
1660172579444795,-45.563439383535524,-117.83016708628975,13.885709925993751
1660172579460796,8.758678568703772,-91.40154116121153,6.927595941100208
1660172579476797,44.403753719386486,-40.619516289006015,4.60822461280236
1660172579492797,53.43709468223051,31.464103150987967,9.002822919050914
1660172579508798,38.910505836575794,122.10269321736496,19.1348134584573
