Timestamp (microseconds),Accel X (g),Accel Y (g),Accel Z (g),vel x (m/s),vel y (m/s),vel z (m/s),disp x (m),disp y (m),disp z (m)
1660172553635681,-0.2923018234531165,-0.05365072098878443,0.9718776226443886,0,0,0,-0.001639348861571232,-0.001019780540509877,-0.5749686568153711
1660172553651681,-0.2944991226062408,-0.05560387579156156,0.970046540016785,-0.0001443338791065132,0.0005194196146645697,-0.0004585835487250446,-0.001955919242393739,-0.001180052263422741,-0.5747279306742946
1660172553667680,-0.3040207522697793,-0.03900205996795592,0.9628442816815443,-0.0001695652203629274,0.001504800729670278,-0.001257651870791364,-0.002268503172468826,-0.001285777084742161,-0.5744817934855572
1660172553683680,-0.3058518348973829,-0.02471961547264812,0.9649195086594951,-0.0001057385583676015,0.002798768130623497,-0.002321030080606334,-0.002569367753579492,-0.001286522047285811,-0.574228680220463
1660172553699680,-0.3017013809414815,-0.04364080262455161,0.9638208590829329,-3.65271417907475e-06,0.004288773771885394,-0.003545337073159393,-0.002853366354118826,-0.001288771611451118,-0.5739675356925966
1660172553715680,-0.2974288548104065,-0.04632639047837017,0.9698023956664379,7.419247619108684e-05,0.005900047165566337,-0.004814217381582485,-0.003117526441948569,-0.001316932018967968,-0.5736982397735901
1660172553731680,-0.2936446173800258,-0.054627298390173,0.9781033035782407,6.15955912640881e-05,0.007512880591394488,-0.00600140984479742,-0.003361190391617601,-0.001305523520341188,-0.5734217812385373
1660172553747679,-0.2897383077744715,-0.03900205996795592,0.9824979018844893,-0.0001040373052791848,0.008992993978878304,-0.006986349928621557,-0.003586444576864719,-0.001269462791329592,-0.5731401102709682
1660172553763679,-0.2921797512779429,-0.04901197833218873,0.9761501487754636,-0.0004752361262259688,0.01029730444567237,-0.007677602224706813,-0.003797449444989737,-0.001268293895836123,-0.5728560532279663
1660172553779679,-0.2976729991607536,-0.05181963836118086,0.96919203479057,-0.001089027269466347,0.01148389175950275,-0.008033028394413458,-0.003998793566703853,-0.001309507606503933,-0.5725731972020296
1660172553795679,-0.2965743495841915,-0.04437323567559304,0.9671168078126193,-0.001960049089734458,0.01265047969855335,-0.00807295144186424,-0.004194071582299544,-0.001370888628630046,-0.572295566530947
1660172553811679,-0.2991378652628365,-0.05328450446326372,0.9665064469367515,-0.003071048636180382,0.01390245821554565,-0.007877087616318725,-0.004385069423933984,-0.001415370530951011,-0.5720271916007423
1660172553827678,-0.2910811017013808,-0.0403448538948652,0.9801785305561914,-0.004364239301110532,0.01532046648730506,-0.007561800426338386,-0.004571498735301649,-0.001413224742338185,-0.5717715116168254
1660172553843678,-0.2916914625772487,-0.03814755474174092,0.9877470054169528,-0.005739948582699736,0.0169000191550526,-0.007252331471684637,-0.004751576003527257,-0.001373448146821715,-0.5715306600990914
1660172553859678,-0.2907148851758601,-0.03338673990997165,0.9917753871976807,-0.007067719209884289,0.0185525075739641,-0.00707009503902053,-0.004923174773546798,-0.001340327329584274,-0.5713048787856465
1660172553875678,-0.2891279468986037,-0.02752727550164025,0.9916533150225071,-0.008210689981005978,0.02019589147996748,-0.007127237556349106,-0.005084415121142697,-0.001337352355686621,-0.5710922977548955
1660172553891677,-0.2931563286793315,-0.04925612268253587,0.9793240253299764,-0.009059285215967208,0.02180375799839526,-0.007506945856403705,-0.005233385436375148,-0.00132052800311174,-0.5708891849588872
1660172553907677,-0.2988937209124893,-0.04669260700389088,0.9655298695353629,-0.009564497030932701,0.02335847302976985,-0.008244982323993776,-0.005368001517872756,-0.001282005128940418,-0.5706904994818015
1660172553923677,-0.2949874113069351,-0.04278629739833661,0.9693141069657436,-0.009757731152564718,0.02483110988761211,-0.009320115914010822,-0.005486441431923208,-0.001238959281320144,-0.5704910177216633
1660172553939677,-0.3010910200656136,-0.06280613412680269,0.9645532921339743,-0.009748838586041916,0.02620691381487407,-0.01062860526789764,-0.005587683381417135,-0.001217380627098002,-0.5702866234866025
1660172553955688,-0.3097581445029371,-0.04864576180666802,0.9551537346456094,-0.009701405556696149,0.02746803738312825,-0.01198653118680541,-0.005672079594363669,-0.00122308859278862,-0.5700754188502588
1660172553971688,-0.3089036392767222,-0.03424124513618665,0.9568627450980394,-0.009790042050449161,0.02861040017910053,-0.01320878937146446,-0.00574160786672614,-0.001240164896856362,-0.5698582532602865
1660172553987688,-0.2985275043869686,-0.05194171053635444,0.97602807660029,-0.01015172407195156,0.02971350783786567,-0.0141701739472659,-0.005798962427381136,-0.001255580226817029,-0.5696384646262679
1660172554003687,-0.300114442664225,-0.04522774090180803,0.9748073548485543,-0.01084665129921821,0.03087004196445932,-0.01479041205270805,-0.005846464502206944,-0.001259656630810696,-0.5694209600648122
1660172554019687,-0.29925993743801,-0.0289921416037231,0.98286411841001,-0.0118399114293787,0.0320573869741719,-0.01505254169454867,-0.005886337125873129,-0.001251716820774025,-0.5692108257697591
1660172554035687,-0.284489204242008,-0.03118944075684738,0.9955596246280614,-0.01300974215408882,0.03322770064044308,-0.01505967517718038,-0.005920945435440651,-0.001249847642518632,-0.5690118475338489
1660172554051687,-0.2780193789578087,-0.05841153582055369,0.9965362020294499,-0.01418242955719495,0.03443626186604799,-0.0149941297346849,-0.005951460110534479,-0.001255623977381434,-0.5688254923124391
1660172554067687,-0.2792401007095444,-0.0657358663309684,0.9895780880445564,-0.01518548134536921,0.03572456265893909,-0.01501041003027854,-0.005977032977393906,-0.001244213521464567,-0.5686505380381039
1660172554083686,-0.2925459678034636,-0.04229800869764233,0.9750514991989014,-0.01590164470631003,0.03700999663933553,-0.01519951448291134,-0.005996117504801403,-0.001213084983347306,-0.568483396298348
1660172554099686,-0.3076829175249864,-0.04010070954451805,0.9604028381780729,-0.01630423955967031,0.03821599875326093,-0.0156059337517008,-0.006007726622091342,-0.001175308247410245,-0.5683192879623682
1660172554115686,-0.315617608911269,-0.04046692607003877,0.947585259784848,-0.01646283444988961,0.03937489150271478,-0.01622161213895041,-0.006011032540486998,-0.001144051616375881,-0.568153776487571
1660172554131686,-0.3104905775539786,-0.03399710078583951,0.9508812085145344,-0.0165184942767136,0.0405359790559742,-0.01697495506530131,-0.006004958919996231,-0.001127489837129294,-0.5679841211609166
1660172554147686,-0.3019455252918286,-0.0453498130769816,0.968337529564355,-0.01663605291817129,0.04168529516075394,-0.01774559781428187,-0.005988950681317071,-0.001115186431972247,-0.5678100815857918
1660172554163685,-0.2927901121538108,-0.05072098878461873,0.9817654688334478,-0.01694940861285871,0.04277250578193142,-0.018403218671898,-0.005963899171232076,-0.001106071846484838,-0.5676337759515181
1660172554179685,-0.2894941634241244,-0.0432745860990309,0.9839627679865721,-0.01751888841618522,0.04375504677652244,-0.01886601454746635,-0.005932186135389797,-0.00109733516684258,-0.5674588792954001
1660172554195685,-0.2866865033951322,-0.0462043183031966,0.9949492637521935,-0.01831474503443173,0.04463762284013367,-0.01914225315507592,-0.005896748275097242,-0.001087054954663399,-0.567289308424471
1660172554211685,-0.2876630807965208,-0.05597009231708228,0.9838406958113985,-0.01923121571890182,0.04547955877670254,-0.01931296299936961,-0.005859720300530369,-0.001073740843405192,-0.5671278972396301
1660172554227685,-0.2913252460517279,-0.04571602960250232,0.9815213244831007,-0.02012501941984875,0.04633140598546913,-0.01948530900328393,-0.005821721917788784,-0.001056268366970762,-0.5669754907643862
1660172554243684,-0.2949874113069351,-0.04547188525215518,0.9807888914320593,-0.02086422398148874,0.04719366467277133,-0.01976042307986669,-0.005782185027167632,-0.00103584126087421,-0.5668307302169301
1660172554259684,-0.3056076905470357,-0.03607232776379021,0.9690699626153965,-0.02137097285642812,0.04806766692803281,-0.02020309159700989,-0.005739864167480844,-0.001015576660826768,-0.5666905770812994
1660172554275695,-0.3065842679484243,-0.0365606164644845,0.9596704051270315,-0.02164506061914552,0.04900160948666507,-0.0208110919287424,-0.005692919319587929,-0.0009978975093413184,-0.5665513727983732
1660172554291695,-0.3023117418173493,-0.05169756618600729,0.9583276112001222,-0.02176214603439676,0.05004539268890577,-0.0215124615324643,-0.005639126181741458,-0.0009840521878296919,-0.566410064238386
1660172554307695,-0.3029221026932172,-0.0453498130769816,0.9634546425574122,-0.02184797714729575,0.05117826401333876,-0.02218916808467633,-0.005576816849337423,-0.0009753804273969378,-0.5662652040932165
1660172554323695,-0.2965743495841915,-0.04571602960250232,0.9744411383230336,-0.02203695179556462,0.05231679964812107,-0.02271376866098371,-0.005506025251264983,-0.0009729333080811119,-0.5661174222559672
1660172554339695,-0.2969405661097122,-0.04290836957351019,0.9746852826733807,-0.0224283678963817,0.05338832681059818,-0.02299755782604211,-0.005428729548628071,-0.0009754900919399911,-0.5659692235157601
1660172554355694,-0.2914473182269015,-0.04010070954451805,0.9823758297093157,-0.02305482880619598,0.05436390562985659,-0.02302934236481428,-0.005348009849791835,-0.0009790287202063926,-0.5658241784251612
1660172554371694,-0.2914473182269015,-0.04449530785076661,0.9851834897383078,-0.02387245844055332,0.05524093454434588,-0.02288022299432942,-0.005266923829727006,-0.0009786551148961424,-0.5656857746338481
1660172554387694,-0.2894941634241244,-0.04498359655146089,0.9816433966582743,-0.02477517326577653,0.05603646580582165,-0.0226780540832967,-0.005187632213603712,-0.0009709933707221549,-0.5655563015004038
1660172554403694,-0.2837567711909665,-0.0596322575722894,0.9920195315480278,-0.02562874342222884,0.05676802866620941,-0.02256244966207183,-0.005110985478291223,-0.0009558807282983221,-0.5654361217571532
1660172554419694,-0.2919356069275958,-0.04498359655146089,0.985427634088655,-0.02631442010140609,0.05741762372253238,-0.0226333191265915,-0.005036878571443409,-0.0009361185659276018,-0.5653235704774047
1660172554435693,-0.2990157930876629,-0.03302052338445094,0.9724879835202564,-0.02676813827726061,0.05797085784622528,-0.02292328620251883,-0.004964900029078099,-0.0009144975118894662,-0.5652155262781889
1660172554451693,-0.3064621957732507,-0.04510566872663446,0.9613794155794615,-0.02700228978275596,0.05850295704644005,-0.02340465370601788,-0.004894196451361281,-0.0008929464601637113,-0.5651084585629077
1660172554467693,-0.3089036392767222,-0.0432745860990309,0.9502708476386665,-0.02710226945212489,0.05916343481554616,-0.02400481084550305,-0.004822757728656668,-0.0008745018794555927,-0.5649996076412745
1660172554483693,-0.3014572365911343,-0.05365072098878443,0.9583276112001222,-0.02719815407193127,0.06006662289505894,-0.02461682050113624,-0.004747462822033986,-0.000860523933326021,-0.5648879348255239
1660172554499693,-0.2966964217593651,-0.05535973144121442,0.9715114061188679,-0.02742077608741322,0.06122174017326905,-0.02511631044312846,-0.004665258454480452,-0.0008472069596058257,-0.564774502837067
1660172554515692,-0.2949874113069351,-0.04144350347142733,0.9806668192568857,-0.02785682482706669,0.06255559244132995,-0.02539546424478025,-0.004574461513721782,-0.0008303081393395402,-0.5646621108200904
1660172554531692,-0.2910811017013808,-0.02471961547264812,0.9932402532997635,-0.02851804265316956,0.06399368716053876,-0.02540953441102711,-0.004475020321691591,-0.0008083527204292595,-0.5645543308690399
1660172554547692,-0.2882734416723887,-0.03118944075684738,0.9961699855039292,-0.0293355492555311,0.06551226197971809,-0.02520139242475419,-0.004367569364075935,-0.0007770966029730512,-0.5644542934893271
1660172554563692,-0.2930342565041579,-0.03582818341344307,0.9809109636072328,-0.0301813029959528,0.06709947315949699,-0.0248843690152634,-0.004252362965341562,-0.0007279325111446892,-0.564363581669823
1660172554579692,-0.2897383077744715,-0.03717097734035235,0.9749294270237279,-0.03090793511682977,0.06870486285130441,-0.02461286787264354,-0.004129014120677342,-0.000655122332281747,-0.564281573310207
1660172554595703,-0.287907225146868,-0.05682459754329727,0.97261005569543,-0.03139244099176535,0.07024879174651229,-0.02454824258280705,-0.003996772053513517,-0.000560931632238785,-0.5642054592930964
1660172554611703,-0.2977950713359272,-0.05267414358739586,0.9688258182650493,-0.0315706162273467,0.07163307314345051,-0.02480192475432139,-0.003855024688540207,-0.0004540333220963747,-0.5641309155062281
1660172554627703,-0.3006027313649193,-0.03924620431830306,0.968337529564355,-0.03145370248769621,0.07274858384196227,-0.02539055101266745,-0.003704081722550337,-0.0003452702906781304,-0.5640531927796592
1660172554643704,-0.3073167009994657,-0.03680476081483164,0.9599145494773786,-0.03112451054312331,0.0735329838864056,-0.02624294837292543,-0.003545656720528304,-0.0002437788650340713,-0.5639683042738335
1660172554659704,-0.3076829175249864,-0.03228809033340951,0.96748302433814,-0.03071666425677518,0.0740130529468275,-0.0272323508700911,-0.003382499334254083,-0.0001550889866722763,-0.5638740054845137
1660172554675704,-0.3046311131456472,-0.04107728694590662,0.9661402304112308,-0.03038372863030317,0.07427174850360888,-0.02820217003141916,-0.003217730597953025,-8.179407392979593e-05,-0.5637703512305663
1660172554691704,-0.2973067826352329,-0.05096513313496587,0.9705348287174793,-0.03026548081795994,0.0744098275037066,-0.02899420715851873,-0.003054456465342297,-2.427085107908162e-05,-0.5636597392052991
1660172554707705,-0.2848554207675287,-0.06427100022888554,0.9804226749065386,-0.03045887761758941,0.07453740912337876,-0.02947913187634644,-0.002895470932509785,2.0612996426023e-05,-0.5635464636367225
1660172554723705,-0.2855878538185701,-0.06585793850614197,0.983718623636225,-0.03099978763583809,0.0747519086256533,-0.02957274245640711,-0.002742983503954472,6.001830001121835e-05,-0.5634358890488687
1660172554739705,-0.2904707408255129,-0.05169756618600729,0.9813992523079271,-0.03185849248438782,0.07511213938138096,-0.02925151948858006,-0.002598551646693943,0.0001021340302920976,-0.5633334280078882
1660172554755705,-0.2955977721828029,-0.03741512169069949,0.9824979018844893,-0.03294870489273765,0.07564481381638186,-0.02857929133155806,-0.002462978678854354,0.0001528397039629644,-0.5632435555458838
1660172554771706,-0.2949874113069351,-0.02532997634851597,0.98115510795758,-0.03414660121417942,0.07635962228858696,-0.02770729228279236,-0.002335955160504796,0.0002159643970840097,-0.5631690645024583
1660172554787706,-0.2940108339055465,-0.03289845120927737,0.982009613183795,-0.03531458950193941,0.07724286782454667,-0.02682409106063811,-0.002215839843709108,0.0002948583267260042,-0.5631106667310249
1660172554803706,-0.2872968642710001,-0.04388494697489875,0.9816433966582743,-0.03632519117257411,0.07824327984990785,-0.02609572753478618,-0.002100022609421143,0.0003911064996632812,-0.563066959495825
1660172554819707,-0.2887617303730829,-0.05096513313496587,0.9774929427023729,-0.03708137316682962,0.07927592953646197,-0.02564122846440494,-0.001985695853460673,0.0005020539036831202,-0.5630347382986379
1660172554835707,-0.2903486686503394,-0.04547188525215518,0.9757839322499429,-0.0375299017717391,0.08025926429708069,-0.02554060740305699,-0.001870408073207128,0.0006211177376750508,-0.5630095902610704
1660172554851707,-0.2949874113069351,-0.04156557564660091,0.9757839322499429,-0.03766565612061523,0.08116589939786675,-0.02583686401156686,-0.001751969004494107,0.0007402801463991266,-0.5629866365605678
1660172554867707,-0.3029221026932172,-0.0424200808728159,0.9658960860608836,-0.03752738971141007,0.08203196806608769,-0.02651562522358691,-0.00162801154371865,0.0008524085314728564,-0.5629612725959694
1660172554883708,-0.3042648966201265,-0.04901197833218873,0.9640650034332801,-0.0371868918354092,0.08290463580153455,-0.02749537055413333,-0.001495973047194355,0.00095315314682315,-0.5629297853251103
1660172554899708,-0.30096894789044,-0.0567025253681237,0.966628519111925,-0.03673384456053787,0.08378177334592501,-0.02864642543213064,-0.001353821343123224,0.001042221656534915,-0.562889762269989
1660172554915710,-0.2998702983138779,-0.0453498130769816,0.9687037460898758,-0.03625926700357086,0.08461383696849231,-0.02981649642740632,-0.001201007628037583,0.001122497803963205,-0.5628402406556261
1660172554931710,-0.2979171435111008,-0.03851377126726163,0.9754177157244222,-0.03584107508297539,0.08536371111541591,-0.03085721053808449,-0.001038783590853027,0.001196657734728683,-0.5627815997499077
1660172554947711,-0.3020675974670022,-0.03814755474174092,0.9678492408636608,-0.0355350907623733,0.08603434202424558,-0.03165829904324228,-0.0008696697768822208,0.001264750389449706,-0.5627152709846815
1660172554963711,-0.2975509269855801,-0.03582818341344307,0.9730983443961243,-0.03537282708734882,0.08662379137204616,-0.03217043977107507,-0.000696815938578086,0.001325731704652164,-0.5626433760849686
1660172554979711,-0.2868085755703058,-0.04522774090180803,0.9799343862058443,-0.03536458369475569,0.08709207556888958,-0.03239776417154414,-0.0005238412177599211,0.001380119201013717,-0.562568377002591
1660172554995711,-0.2831464103150987,-0.05816739147020655,0.9801785305561914,-0.03550536511133851,0.08739411136431383,-0.03237226569838996,-0.0003548082152544962,0.001430190968656589,-0.5624927867842536
1660172555011712,-0.2860761425192644,-0.06158541237506654,0.9749294270237279,-0.03578161298002372,0.08751885564718961,-0.03214014879115071,-0.0001938546515998381,0.001478500400819372,-0.5624189735743788
1660172555027712,-0.2908369573510337,-0.06219577325093439,0.97261005569543,-0.03617684483792736,0.08749067443691869,-0.03176754788989483,-4.45761057509752e-05,0.001526786254709939,-0.562349064822724
1660172555043712,-0.2930342565041579,-0.05047684443427158,0.9749294270237279,-0.03667446618936582,0.08736011082472485,-0.03133820682432885,9.055042323130808e-05,0.001576116898114854,-0.5622849237620304
1660172555059713,-0.2919356069275958,-0.03741512169069949,0.97944609750515,-0.03725748506319989,0.087206423717163,-0.03092800572115961,0.0002105855312759101,0.001627324701823765,-0.5622281463713168
1660172555075713,-0.2912031738765544,-0.05096513313496587,0.9840848401617457,-0.03790661655555285,0.08712988161000866,-0.03057869024994307,0.0003163038183825462,0.001680702266607445,-0.5621800374262997
1660172555091713,-0.2891279468986037,-0.04791332875562659,0.9821316853589686,-0.03859875052071001,0.08721097110950987,-0.03029513374561346,0.0004099184464392439,0.001736237795248794,-0.5621415610752791
1660172555107713,-0.2886396581979094,-0.05145342183566015,0.9809109636072328,-0.03930679032852256,0.08748161944683497,-0.03006497406624305,0.0004943914589189799,0.001794750729074973,-0.5621132816949996
1660172555123714,-0.2882734416723887,-0.05194171053635444,0.9770046540016786,-0.04000039117447577,0.08795814325073611,-0.02987981142637094,0.0005729364295370091,0.001857709935711522,-0.562095305839314
1660172555139714,-0.2923018234531165,-0.05499351491569371,0.9682154573891815,-0.04064694699744913,0.08867477049895364,-0.02974332861623209,0.0006490989497837066,0.001925643342383971,-0.5620872340533619
1660172555155714,-0.287052719920653,-0.04425116350041947,0.9800564583810178,-0.04121333987167624,0.08965330352610858,-0.02967016808416526,0.0007268872106117184,0.001997731607758264,-0.5620881385921336
1660172555171714,-0.2831464103150987,-0.04058899824521234,0.9878690775921264,-0.04166932589991614,0.09086837385582126,-0.0296764013541076,0.000810409107100241,0.002072748102622461,-0.5620965860745333
1660172555187715,-0.2892500190737772,-0.03875791561760877,0.9865262836652171,-0.0419928721958551,0.09226572920404073,-0.02976571223637176,0.0009033019341858092,0.00214937988065608,-0.5621107273331301
1660172555203715,-0.2912031738765544,-0.03546196688792236,0.9783474479285879,-0.0421768852582817,0.09379294248023463,-0.02992966431503056,0.001008447293702504,0.002226880378196662,-0.5621284834247682
1660172555219715,-0.2910811017013808,-0.04962233920805659,0.9749294270237279,-0.04223489214067346,0.09539501693397377,-0.03015062872987722,0.001127881011117373,0.002306876865745737,-0.5621478328366801
1660172555235717,-0.2926680399786372,-0.04315251392385733,0.9654077973601893,-0.04220170395026571,0.09698458621465852,-0.03038634277302933,0.001262415984068114,0.002392638400563977,-0.5621671436125183
1660172555251718,-0.2997482261387043,-0.0432745860990309,0.9621118486305029,-0.04212613018068998,0.09843718078754819,-0.03057378157792048,0.00141097934743588,0.002485476562676682,-0.5621854475898549
1660172555267718,-0.2924238956282901,-0.03887998779278234,0.9687037460898758,-0.04205669161940229,0.09963901566088404,-0.03067390942177186,0.001570442213542439,0.002583950559383693,-0.5622025495688679
1660172555283718,-0.286198214694438,-0.04657053482871731,0.9835965514610514,-0.04202592471651072,0.1005336574394157,-0.03069366198726153,0.001736370536007126,0.002686550056571217,-0.5622189033241278
1660172555299718,-0.2820477607385365,-0.04718089570458517,0.9870145723659114,-0.04204019120826985,0.1011126085617193,-0.03065770219672997,0.001904008865801533,0.002792770610394226,-0.5622352759482966
1660172555315719,-0.2816815442130158,-0.05572594796673513,0.9844510566872664,-0.04207927695924081,0.1013848404828719,-0.03058858237900027,0.002068795414663948,0.002901278690489702,-0.5622523221140628
1660172555331719,-0.2816815442130158,-0.0613412680247194,0.9815213244831007,-0.0421059001413045,0.1013677137902116,-0.03051520311849386,0.002226557629116835,0.00300855296291683,-0.5622702332481764
1660172555347719,-0.2892500190737772,-0.06085297932402511,0.9695582513160907,-0.04208098415532367,0.1010843966833394,-0.03047372968019412,0.002373664517156912,0.00311012971851443,-0.5622885893945593
1660172555363720,-0.2913252460517279,-0.05133134966048658,0.9694361791409172,-0.04197830960628103,0.1005681771568663,-0.03049675624616579,0.002507151349409191,0.003202270652353557,-0.5623064499243315
1660172555379720,-0.2947432669565879,-0.05206378271152801,0.9655298695353629,-0.04179328060258673,0.09988410441312243,-0.03060607219482137,0.002624951973279776,0.003281807491738455,-0.5623226282471161
1660172555395720,-0.2926680399786372,-0.05804531929503298,0.9707789730678265,-0.04154369864292892,0.09912452060142335,-0.03080529940252525,0.002726191824971995,0.003345919303454576,-0.5623360428839472
1660172555411720,-0.2837567711909665,-0.05133134966048658,0.9799343862058443,-0.04126399991141136,0.09836569761809587,-0.03107040465942468,0.002811082279294798,0.003393076980599955,-0.5623460301075714
1660172555427721,-0.2838788433661401,-0.06341649500267055,0.9816433966582743,-0.04099676763236215,0.09766202700184957,-0.0313484418476519,0.002880431447848732,0.00342369218723585,-0.5623525421532994
1660172555443721,-0.2860761425192644,-0.05682459754329727,0.9782253757534143,-0.04078478954939366,0.09709571330826734,-0.03157629793835665,0.002935529039232009,0.003439702594143528,-0.5623562131302741
1660172555459721,-0.2850995651178758,-0.06170748455024011,0.9710231174181736,-0.0406646507003891,0.0967838958466939,-0.03171170475212778,0.002978623947102553,0.003443327177003,-0.5623583102300791
1660172555475721,-0.2854657816433965,-0.053772793163958,0.9721217669947357,-0.04066158697960345,0.09681468187303865,-0.03174306845301969,0.00301317147196656,0.003436641932320559,-0.5623605939597445
1660172555491722,-0.2891279468986037,-0.03900205996795592,0.9774929427023729,-0.04078529337053177,0.0972135393972036,-0.03167184765979958,0.003043373479730328,0.003422959204687817,-0.5623651045368196
1660172555507722,-0.2877851529716944,-0.05133134966048658,0.9800564583810178,-0.04102687726094192,0.09797060267091209,-0.03150291838775587,0.003073565954738105,0.00340703080012969,-0.5623738889441481
1660172555523722,-0.2854657816433965,-0.04266422522316304,0.9829861905851836,-0.04135832416252914,0.09904372874140349,-0.03125128258895556,0.003107805221894937,0.003392899513184167,-0.5623886984686455
1660172555539723,-0.2848554207675287,-0.04229800869764233,0.9824979018844893,-0.04173569238005811,0.1003380014664606,-0.03094463355943391,0.003149370405249385,0.003382473296570478,-0.5624107084252078
1660172555555725,-0.2833905546654458,-0.03973449301899734,0.9826199740596628,-0.0421053687529019,0.1017361819876918,-0.03062346562916223,0.003200345465300238,0.003376239215628941,-0.5624403139860277
1660172555571725,-0.2841229877164873,-0.04351873044937804,0.9782253757534143,-0.04241221034560973,0.1031392617644096,-0.03034105482594721,0.00326169339969334,0.003374989591576741,-0.5624770407455661
1660172555587725,-0.2833905546654458,-0.04351873044937804,0.9757839322499429,-0.04260822426737765,0.1044497682580865,-0.03015216584564832,0.003333450366178495,0.003379996055360178,-0.5625195892651437
1660172555603726,-0.2864423590447851,-0.04132143129625376,0.9737087052719922,-0.04265946662350859,0.1055576353328396,-0.03009820442543661,0.00341460157263287,0.003391005143550765,-0.5625660041552942
1660172555619726,-0.285343709468223,-0.05511558709086728,0.9766384374761579,-0.04255014636694695,0.1063751158047952,-0.03019989055367361,0.003503012338318289,0.003406164789432893,-0.5626139315244576
1660172555635726,-0.2843671320668344,-0.04925612268253587,0.9779812314030671,-0.04228519581515942,0.1068584477955352,-0.03045069490112635,0.00359569546408949,0.003423401963064248,-0.5626609297525726
1660172555651726,-0.2849774929427022,-0.05633630884260299,0.9789578088044557,-0.04189215920790421,0.1069948832494414,-0.03080998241136676,0.003689085064085769,0.003439078732450563,-0.5627048157795268
1660172555667727,-0.2882734416723887,-0.04693675135423803,0.97773708705272,-0.04142175311714092,0.1068103143650475,-0.03120146956572332,0.003779239700123581,0.00344816222914775,-0.5627440314309379
1660172555683727,-0.2887617303730829,-0.04815747310597374,0.9740749217975129,-0.04094564800691049,0.1063938982629466,-0.03152012703579866,0.003862290361202276,0.003447765289722442,-0.5627779964313153
1660172555699727,-0.2872968642710001,-0.05242999923704872,0.9702906843671322,-0.04054923277807732,0.1058795242197441,-0.0316571267861895,0.003935058060999793,0.003437457073994995,-0.5628073857173013
1660172555715727,-0.2854657816433965,-0.05401693751430514,0.9723659113450829,-0.04031772171656051,0.105392857035465,-0.0315367486373536,0.003995423629759932,0.003418235404261935,-0.5628342381191748
1660172555731728,-0.2789959563591973,-0.06085297932402511,0.9732204165712979,-0.04031674252129305,0.1050309935422171,-0.0311359622799925,0.004042415737081268,0.003393990968950335,-0.5628617980409162
1660172555747728,-0.2780193789578087,-0.06195162890058725,0.9757839322499429,-0.04057175777721352,0.1048752996902645,-0.03048327215233995,0.004076320749934162,0.003369923309944591,-0.5628940376713319
1660172555763728,-0.2765545128557259,-0.05560387579156156,0.9834744792858778,-0.04105313613331874,0.1049773984780238,-0.02965780243316202,0.004098776314819303,0.003349317694999191,-0.5629348961729427
1660172555779729,-0.2770428015564201,-0.04351873044937804,0.9929961089494164,-0.04167377840001987,0.1053262783431941,-0.02878069703080171,0.004112502067752034,0.003334661283527198,-0.5629873790073469
1660172555795729,-0.2807049668116273,-0.03070115205615309,0.9960479133287556,-0.04230291240653802,0.105863506195746,-0.02798366776150326,0.004120747773182369,0.003328617226169224,-0.5630527480336642
1660172555811729,-0.280216678110933,-0.04083314259555948,0.9889677271686885,-0.04279487264256419,0.106531728472759,-0.02737696936024991,0.004126929046110551,0.003332402293604273,-0.5631300534679629
1660172555827729,-0.2847333485923551,-0.04974441138323016,0.98115510795758,-0.04302628075140355,0.1072810704578293,-0.027036247137316,0.004134462750222597,0.003345410934411965,-0.5632161932754778
1660172555843730,-0.2860761425192644,-0.04583810177767589,0.9738307774471657,-0.04293006019521051,0.1080484584850266,-0.0269921487459276,0.004146409303800167,0.003364925571608856,-0.56330654207173
1660172555859730,-0.2846112764171815,-0.05511558709086728,0.9661402304112308,-0.0425144383742373,0.1087697564990539,-0.02721468572595418,0.004164951657191223,0.003385732888783188,-0.563396004385897
1660172555875763,-0.2857099259937437,-0.05767910276951227,0.9638208590829329,-0.04186055904920913,0.1093958991441165,-0.02761112158888766,0.004190999028023956,0.003402204187845982,-0.5634801994540204
1660172555891763,-0.2860761425192644,-0.05389486533913157,0.9649195086594951,-0.04109930542513546,0.1098826213563573,-0.02804891507972985,0.004223914434599078,0.003410270516930492,-0.563556441202404
1660172555907763,-0.2924238956282901,-0.04596017395284946,0.9682154573891815,-0.04037419015269882,0.1102028282039867,-0.02839696863460946,0.004261513368695635,0.003407899957096102,-0.5636242366382481
1660172555923763,-0.2910811017013808,-0.03936827649347663,0.9765163653009843,-0.03980203224157861,0.1103785829175254,-0.02856642107729805,0.004300697791029903,0.003395918043375034,-0.563685172346384
1660172555939764,-0.2804608224612801,-0.0453498130769816,0.9850614175631343,-0.03944359459493157,0.1104601389610304,-0.02852451923331783,0.004338385035683952,0.003377706102621956,-0.5637422523480274
1660172555955764,-0.2758220798046844,-0.05035477225909801,0.9899443045700771,-0.03929211602353926,0.1104697483365132,-0.02828141499213155,0.004371904798744448,0.003357377953287217,-0.5637989106704783
1660172555971764,-0.2757000076295109,-0.05816739147020655,0.9829861905851836,-0.03928192544538479,0.1103975149868578,-0.02788227613351647,0.00439889375667977,0.003338318587286271,-0.5638580008795867
1660172555987764,-0.2747234302281223,-0.06414892805371197,0.9807888914320593,-0.03931339949280051,0.1102426443969756,-0.02740976883263352,0.004417425657883015,0.003321434399965332,-0.5639210546489846
1660172556003765,-0.2808270389868008,-0.05609216449225585,0.9781033035782407,-0.03928557803829312,0.1100248950104774,-0.02696800214609194,0.004426452305186131,0.003304336118329379,-0.5639880003381562
1660172556019765,-0.2858319981689172,-0.04657053482871731,0.976882581826505,-0.0391262088077719,0.1097643011143595,-0.0266440423774164,0.004425965321463245,0.003283868278967698,-0.5640573796770414
1660172556035765,-0.2885175860227358,-0.04205386434729519,0.9732204165712979,-0.03881117032635757,0.1094803118109014,-0.02647474509570306,0.004416724959663117,0.003258194369186706,-0.5641269605162317
1660172556051766,-0.2882734416723887,-0.04364080262455161,0.9684596017395286,-0.03836908853642932,0.1092069157333364,-0.0264431736584219,0.004399940824188682,0.00322546032059557,-0.5641945456087901
1660172556067766,-0.2825360494392308,-0.05951018539711583,0.9759060044251164,-0.03787087930053468,0.1089855609782376,-0.02649834091344896,0.004377073022903064,0.003183789076517496,-0.5642587334149481
1660172556083766,-0.2832684824902723,-0.05853360799572727,0.9723659113450829,-0.03740761838772617,0.1088466825993187,-0.02657226204548326,0.004349603490975409,0.003133550537377677,-0.5643194155016292
1660172556099766,-0.2848554207675287,-0.05975432974746298,0.9711451895933472,-0.03706317520213012,0.1088169623446915,-0.0265998594950876,0.004318877464777313,0.003076433126564791,-0.5643778811465444
1660172556115767,-0.281925688563363,-0.05487144274052014,0.9782253757534143,-0.03688929442194187,0.1089266552361673,-0.02655009016080135,0.004286250133166703,0.00301329274441019,-0.5644365048475376
1660172556131767,-0.2814373998626687,-0.0491340505073623,0.9861600671396964,-0.03688987257024349,0.1091751413075594,-0.02642876855512889,0.004253181184849775,0.002945831926199716,-0.5644981043417572
1660172556147767,-0.2838788433661401,-0.02703898680094596,0.9834744792858778,-0.03701877582229721,0.1095199141592214,-0.02625341379307824,0.004220925082605186,0.002877866255415995,-0.5645651558925845
1660172556163767,-0.2780193789578087,-0.04144350347142733,0.9894560158693828,-0.03719223030120249,0.1099370031059317,-0.02605416191354743,0.004190466685451518,0.002813193786228308,-0.5646390952623892
1660172556179768,-0.2744792858777751,-0.05853360799572727,0.9848172732127871,-0.03731274639035393,0.1104324745691896,-0.02588343030231891,0.004162997463515377,0.002754135394747758,-0.5647199084781169
1660172556195770,-0.2804608224612801,-0.04974441138323016,0.9792019531548029,-0.03729736502893999,0.1109660946481125,-0.02579158073357014,0.004139883836095423,0.002700714595732516,-0.5648061388717653
1660172556211770,-0.2808270389868008,-0.05352864881361086,0.9787136644541086,-0.03710089377355727,0.1114468952167225,-0.02579800948929365,0.004121862921499624,0.002649583444357932,-0.5648953061796118
1660172556227770,-0.2854657816433965,-0.05597009231708228,0.96577401388571,-0.03672707993086392,0.111808787590716,-0.02588250871960559,0.004108581178000802,0.002595637928992732,-0.5649845986913972
1660172556243771,-0.2927901121538108,-0.04180971999694805,0.9655298695353629,-0.03622538341769569,0.112020120285815,-0.02599108453983607,0.004098711737317361,0.002534522632864816,-0.5650716283121502
1660172556259771,-0.2866865033951322,-0.03668268863965807,0.97431906614786,-0.03567475496733961,0.1120603062091219,-0.02605856626797573,0.004090089620892557,0.002463434589539062,-0.5651550314608523
1660172556275771,-0.2818036163881894,-0.05401693751430514,0.9798123140306707,-0.03515958835310528,0.1119397511553888,-0.02602870031813613,0.00407999381221154,0.002382846366740881,-0.565234746779701
1660172556291772,-0.2771648737315937,-0.0508430609597923,0.9784695201037614,-0.03474590621486389,0.1116991595697375,-0.02586327481220397,0.004065679404296219,0.002297414940520868,-0.5653119112111782
1660172556307772,-0.2731364919508659,-0.06195162890058725,0.9840848401617457,-0.03446501212203364,0.1113850426899566,-0.02556094272847196,0.004044847039236162,0.002212369498634798,-0.5653884390950106
1660172556323772,-0.2721599145494773,-0.06512550545510054,0.9796902418554971,-0.03430853178493666,0.1110479379461953,-0.02516475826101592,0.004016035814695804,0.002130370131895008,-0.565466429463515
1660172556339772,-0.278507667658503,-0.05169756618600729,0.9821316853589686,-0.03423540041724527,0.1107246593729498,-0.02474005360676792,0.003978822626244733,0.002052560505689367,-0.5655475855333569
1660172556355773,-0.2788738841840237,-0.0453498130769816,0.98628213931487,-0.03418843577143658,0.1104223085577054,-0.02435537186858226,0.00393362310979129,0.00197899680703038,-0.5656328236061932
1660172556371773,-0.2792401007095444,-0.04498359655146089,0.9839627679865721,-0.03411517732056962,0.1101607386926343,-0.02406658996598064,0.003881536330289649,0.001907786508013203,-0.5657221827138658
1660172556387773,-0.281071183337148,-0.04559395742732875,0.9801785305561914,-0.03398641211532786,0.1099953618903419,-0.02388728322959019,0.003824459721002754,0.001836624561770992,-0.5658150475647759
1660172556403773,-0.2842450598916608,-0.05584802014190871,0.9748073548485543,-0.03380683421280418,0.1099614174548817,-0.02377861316283642,0.003764817006888653,0.001763822144527079,-0.5659106054914196
1660172556419774,-0.2872968642710001,-0.04754711223010588,0.968337529564355,-0.03361380284547281,0.110049899238718,-0.02367692701747011,0.003704803223578441,0.00168722658553332,-0.5660083801227361
1660172556435774,-0.2863202868696115,-0.04412909132524589,0.9721217669947357,-0.03346325698467752,0.1102694453645269,-0.02352899898149508,0.003646143091605279,0.001606334682442387,-0.566108639408815
1660172556451774,-0.2791180285343708,-0.05658045319295013,0.9745632104982072,-0.03340710925466209,0.1106644972857665,-0.02330859397914156,0.003590611171960935,0.001525592861733096,-0.5662125092092901
1660172556467774,-0.2739909971770809,-0.05120927748531301,0.98628213931487,-0.03347022988885386,0.1112358315123525,-0.02300897873786538,0.003540163553757472,0.001451516098055914,-0.5663217272303086
1660172556483775,-0.2739909971770809,-0.04632639047837017,0.9910429541466392,-0.03363511670163574,0.11190873694042,-0.02263385591066257,0.00349623227456957,0.001387432306726936,-0.5664380917056235
1660172556499775,-0.2789959563591973,-0.04754711223010588,0.9873807888914321,-0.03384012044432017,0.1126069204057642,-0.02221469229801798,0.003459344298401478,0.001333757256556307,-0.5665627685478144
1660172556515777,-0.276798657206073,-0.03399710078583951,0.9882352941176471,-0.03399321076521629,0.1132920920212565,-0.02182751651277066,0.003429663207575242,0.00129122741461823,-0.5666956922891752
1660172556531777,-0.2782635233081558,-0.04644846265354374,0.9848172732127871,-0.0339971087374796,0.1139171816551232,-0.0215646425883287,0.003407435065926829,0.001260272526430984,-0.5668352812849334
1660172556547778,-0.2868085755703058,-0.0403448538948652,0.9711451895933472,-0.0337771446995807,0.1144085500098065,-0.02148833834274987,0.003392688469307762,0.001237575124899894,-0.566978579136015
1660172556563778,-0.2826581216144044,-0.04632639047837017,0.9707789730678265,-0.03330342143293438,0.114704550717173,-0.02161519553012727,0.003384830644841374,0.001216263930491038,-0.5671217937634014
1660172556579778,-0.2780193789578087,-0.07013046463721695,0.9778591592278936,-0.03260109206378747,0.1147447216993237,-0.02191178311375037,0.003382355857834515,0.001188769536507238,-0.5672610939647309
1660172556595779,-0.2821698329137101,-0.0575570305943387,0.9724879835202564,-0.03174553407779473,0.1144212756019646,-0.02228396432978753,0.003382082611690046,0.001147043248796987,-0.5673934514806172
1660172556611779,-0.2880292973220415,-0.04681467917906446,0.9685816739147022,-0.03084390869514304,0.1136363074510152,-0.02260247710124831,0.003378510506562326,0.001084322552871661,-0.5675172953775153
1660172556627779,-0.2849774929427022,-0.05987640192263655,0.9710231174181736,-0.03000919753743629,0.1124230212257566,-0.02276113376564708,0.003364748219570904,0.001000174201502187,-0.5676328086232767
1660172556643779,-0.2864423590447851,-0.0575570305943387,0.9646753643091479,-0.02933296485889095,0.1109277044399451,-0.02270666321850386,0.003334508517006527,0.0008992250445153791,-0.5677418052282954
1660172556659780,-0.2782635233081558,-0.05633630884260299,0.9765163653009843,-0.02886278030139581,0.1092840323905003,-0.0224399414543531,0.003283231871034272,0.0007854676532365067,-0.5678472120289506
1660172556675780,-0.2709391927977416,-0.06475928892957983,0.9905546654459449,-0.0285922529308269,0.107577846741354,-0.02201727069849607,0.003208105416061511,0.0006622234560979116,-0.5679522844403535
1660172556691780,-0.2658121614404516,-0.06927595941100195,0.9981231403067063,-0.02846847137624092,0.1058947978043014,-0.02153625481096411,0.003108116779976201,0.0005325286273180608,-0.5680598018993864
1660172556707780,-0.268253604943923,-0.05548180361638799,0.9938506141756314,-0.02841477405172169,0.1043424564043691,-0.02110266419037861,0.00298440236318139,0.0003961294821521587,-0.5681715078153076
1660172556723781,-0.2774090180819409,-0.05316243228809014,0.9838406958113985,-0.0283611758281266,0.1030560936336879,-0.02079795968006384,0.002840526657599802,0.0002510289815587733,-0.5682879720179433
1660172556739781,-0.2890058747234301,-0.05365072098878443,0.9673609521629665,-0.02827062937248961,0.1021945436526113,-0.02065477873206283,0.002682545260987323,9.705088203912154e-05,-0.5684089058051551
1660172556755781,-0.2926680399786372,-0.05120927748531301,0.9591821164263372,-0.02815039295120673,0.1018928993458581,-0.0206557671585668,0.002518609041907474,-6.457974225697007e-05,-0.5685337806935886
1660172556771782,-0.2891279468986037,-0.04718089570458517,0.9722438391699093,-0.02804422230788012,0.1022097047683654,-0.02075369844117991,0.002357950739984173,-0.0002309456978923253,-0.5686624747476187
1660172556787782,-0.286198214694438,-0.04693675135423803,0.9788357366292821,-0.02800851805731352,0.1031179591178868,-0.02087825246499022,0.00220955108813777,-0.0003969789325485452,-0.5687956654112062
1660172556803782,-0.2807049668116273,-0.03460746166170736,0.9810330357824064,-0.0280821376932142,0.1045225906241124,-0.02094087334684464,0.002080910192063306,-0.0005579387908739684,-0.568934791648696
1660172556819782,-0.2772869459067673,-0.03851377126726163,0.9882352941176471,-0.02826250111336347,0.1062741093306623,-0.0208728720765637,0.001977206243356124,-0.0007093256462040222,-0.5690815818245899
1660172556835785,-0.2722819867246509,-0.0365606164644845,0.9949492637521935,-0.02849755336235452,0.1081729427902527,-0.02065967354589163,0.001900868002193191,-0.0008456334156545006,-0.569237325703701
1660172556851785,-0.275944151979858,-0.04290836957351019,0.9906767376211185,-0.02869668755093847,0.1099760493181517,-0.02033098460470236,0.001851320483630789,-0.0009633763337530097,-0.5694021714340358
1660172556867785,-0.2807049668116273,-0.03900205996795592,0.9835965514610514,-0.0287571723243936,0.1114236875843172,-0.0199425670583784,0.001824849346912964,-0.001062560349835879,-0.5695747203132053
1660172556883785,-0.2777752346074616,-0.03533989471274879,0.9844510566872664,-0.02859712330478185,0.112287438466515,-0.01956611874293332,0.00181486971924357,-0.001144933599172837,-0.569752095711811
1660172556899786,-0.2811932555123215,-0.04254215304798947,0.97602807660029,-0.02818351441106976,0.1124231323838244,-0.01925816915950546,0.001812729205334129,-0.001215774496349098,-0.5699305010401106
1660172556915786,-0.2852216372930494,-0.04803540093080017,0.9647974364843215,-0.02754599127619353,0.111807855301792,-0.01903327787763039,0.001808902121086542,-0.001285982096825754,-0.5701061120237469
1660172556931786,-0.2808270389868008,-0.07733272297245763,0.9638208590829329,-0.02677174402565726,0.1105335933450371,-0.0188797791395519,0.001794351757076813,-0.00136853542971834,-0.5702760370646258
1660172556947786,-0.2735027084763866,-0.07867551689936692,0.9702906843671322,-0.02598186272632007,0.1087535478627385,-0.01877712869089286,0.001761609085722815,-0.00147338560652081,-0.5704390472707004
1660172556963787,-0.2728923476005187,-0.08197146562905333,0.97944609750515,-0.02529702236924703,0.1066330692194999,-0.01868295064982111,0.001705157325064256,-0.001604803094581153,-0.5705958438930933
1660172556979787,-0.2803387502861066,-0.0575570305943387,0.9813992523079271,-0.02480560872853227,0.1043563452020161,-0.0185380205753288,0.001621491237171895,-0.001761541605071743,-0.5707487977895515
1660172556995787,-0.284489204242008,-0.04071107042038591,0.9849393453879607,-0.02454460129713464,0.1021625155195192,-0.01831112119669726,0.001509672575585699,-0.001940161183523612,-0.5709012812821339
1660172557011788,-0.2811932555123215,-0.0424200808728159,0.9881132219424735,-0.02449622463716936,0.10033609584493,-0.01802399430481498,0.001372348938149314,-0.002137301302101591,-0.5710568189540521
1660172557027788,-0.2770428015564201,-0.05450522621499942,0.9866483558403907,-0.02459900197549795,0.0991305106243222,-0.0177232079005156,0.001216164170995295,-0.00234728666027961,-0.5712183004682919
1660172557043788,-0.2713054093232623,-0.06341649500267055,0.9832303349355307,-0.02477018081375044,0.0986923103534216,-0.01744740311046421,0.001050870838964887,-0.002560952807297139,-0.571387462485918
1660172557059788,-0.2672770275425345,-0.06366063935301769,0.9833524071107043,-0.02493249413497247,0.09904053690234157,-0.01721750407633713,0.0008876048627335176,-0.002768911953095954,-0.5715647625163726
1660172557075789,-0.275089646753643,-0.05816739147020655,0.9840848401617457,-0.02503536117177493,0.1000772822471102,-0.01702401687829895,0.0007370005400371611,-0.002962998223892916,-0.5717496356759719
1660172557091789,-0.2876630807965208,-0.02447547112230097,0.9716334782940415,-0.02506366468202931,0.1016193606124317,-0.01682782172944735,0.0006075504640531696,-0.003136182006984932,-0.5719409915681218
1660172557107789,-0.2893720912489508,-0.02178988326848241,0.978591592278935,-0.02503231701690962,0.1034603677893638,-0.01659346783038843,0.0005047509537266847,-0.003285659292512611,-0.5721377351097967
1660172557123789,-0.2866865033951322,-0.02545204852368954,0.9790798809796293,-0.0249700948135324,0.105400165701405,-0.01629935741995522,0.0004310553092881248,-0.003413728644108098,-0.5723391155858468
1660172557139790,-0.286198214694438,-0.03204394598306237,0.9729762722209507,-0.02489986693903116,0.1072182795702908,-0.01592022559932693,0.0003858173353264726,-0.00352407740056363,-0.5725447930631802
1660172557155792,-0.2738689250019073,-0.05047684443427158,0.9809109636072328,-0.0248218702709922,0.1086802339658069,-0.01545000993361612,0.0003651154867929541,-0.003620340511677009,-0.5727546119868571
1660172557171792,-0.2653238727397573,-0.05645838101777656,0.9904325932707714,-0.02470546302230772,0.1095813594126164,-0.01493520779178459,0.0003621489583339869,-0.003706379787487845,-0.5729681737571776
1660172557187792,-0.2663004501411459,-0.06659037155718339,0.9931181811245899,-0.0244930439166474,0.1097542440844583,-0.01445241410249356,0.0003680321596501504,-0.003785405645811248,-0.5731843761869113
1660172557203793,-0.2727702754253452,-0.04657053482871731,0.9850614175631343,-0.02411638662406614,0.1090913553298529,-0.01407755066453962,0.0003725843704930397,-0.003861043186724208,-0.5734011124243015
1660172557219793,-0.2788738841840237,-0.05694666971847084,0.9788357366292821,-0.02352197556508891,0.1076237396192051,-0.01388433251517238,0.0003656920202823894,-0.003938494379459559,-0.5736153013894468
1660172557235793,-0.286198214694438,-0.06024261844815726,0.96919203479057,-0.02269656954925765,0.1055358328080254,-0.01392513353868804,0.0003392361779370478,-0.004023558016519348,-0.5738233265980948
1660172557251793,-0.2877851529716944,-0.05792324711985941,0.9618677042801558,-0.02168209173807442,0.1030802749165024,-0.01419582181980218,0.0002883154862254843,-0.004123118408393021,-0.5740217956452531
1660172557267794,-0.2825360494392308,-0.07293812466620908,0.9687037460898758,-0.02057484536712462,0.1005123944415821,-0.01462478493759275,0.0002112407920473141,-0.004244455672305427,-0.5742084143469298
1660172557283794,-0.2786297398336766,-0.07843137254901977,0.9722438391699093,-0.0195099692946172,0.0980708720776729,-0.01507886765059115,0.000108922113065983,-0.004390368168047774,-0.5743827385761021
1660172557299794,-0.2752117189288166,-0.06903181506065481,0.9772487983520257,-0.01863533463754459,0.09595942332674344,-0.01538695945621986,-1.588687039015459e-05,-0.004558431806301577,-0.574546587726636
1660172557315795,-0.2754558632791637,-0.05780117494468584,0.9839627679865721,-0.01808145963637667,0.09435000590697637,-0.01539132753372213,-0.0001591491093182447,-0.004745616746584548,-0.5747039996949924
1660172557331795,-0.2781414511329823,-0.05267414358739586,0.9835965514610514,-0.01793311718851378,0.09338588198124788,-0.01498959209210481,-0.0003156876515531025,-0.004946745712271012,-0.5748607299687287
1660172557347795,-0.2808270389868008,-0.03985656519417091,0.9782253757534143,-0.01820777962031337,0.09313949034860801,-0.01415313326354947,-0.0004793581036187729,-0.005149506513456989,-0.5750233605248746
1660172557363795,-0.2753337911039901,-0.04107728694590662,0.98628213931487,-0.01884585457254582,0.09358723204293283,-0.01294455306911398,-0.0006435440762926612,-0.005338428776684052,-0.575198143139374
1660172557379796,-0.2688639658197909,-0.04950026703288302,0.9958037689784085,-0.01971432884260388,0.09462698006721787,-0.01150842450708831,-0.0008016731120551895,-0.005501438534375408,-0.5753897871522933
1660172557395796,-0.2683756771190966,-0.04962233920805659,0.9887235828183414,-0.02062428586186084,0.09606835054133898,-0.01002415546407205,-0.0009479042633317161,-0.005630145677932522,-0.5756004276140925
1660172557411796,-0.2671549553673609,-0.03765926604104664,0.9958037689784085,-0.02136182126924862,0.09763536257382226,-0.008678501080200142,-0.00107816323614265,-0.005721646690710481,-0.5758289761851036
1660172557427796,-0.276798657206073,-0.03216601815823594,0.9890897993438621,-0.0217267061637454,0.0990616083402827,-0.007662806596883441,-0.001190620916623284,-0.005781758852016759,-0.5760710227602701
1660172557443797,-0.2846112764171815,-0.03924620431830306,0.9806668192568857,-0.02157161098674374,0.1001798830678563,-0.007143402742647252,-0.001285021239671775,-0.005820945916321629,-0.5763193752947763
1660172557459797,-0.2818036163881894,-0.04425116350041947,0.9740749217975129,-0.02083506332142115,0.1008988934677601,-0.007213350595762819,-0.001361861067384095,-0.005849312863627867,-0.5765651787038425
1660172557475830,-0.283634699015793,-0.05889982452124798,0.9698023956664379,-0.01955900467628327,0.1011486792107165,-0.007859461204514289,-0.001422434618760923,-0.005877620655439422,-0.5767994219516418
1660172557491830,-0.2859540703440908,-0.0640268558785384,0.9624780651560236,-0.01788437733901375,0.1008900993947027,-0.008950750727437479,-0.001469368511034499,-0.005917668215026877,-0.5770145505207225
1660172557507830,-0.2912031738765544,-0.0604867627985044,0.9573510337987337,-0.01602492057285437,0.100153061491976,-0.01026553593979993,-0.001506764157803495,-0.005979224605683861,-0.5772058429420676
1660172557523831,-0.2941329060807201,-0.0499885557335773,0.9579613946746015,-0.01422400297360054,0.09904666412505179,-0.01155589549063431,-0.00153963896105859,-0.006067581212237294,-0.57737223267156
1660172557539831,-0.2946211947814144,-0.0403448538948652,0.9605249103532465,-0.01270312192870604,0.09773836871176579,-0.01260467764552168,-0.001572955752644063,-0.006182305503181398,-0.577516372553684
1660172557555831,-0.2898603799496451,-0.04486152437628732,0.9716334782940415,-0.01161414920138906,0.09641003825401104,-0.01325837261015019,-0.001610741585464837,-0.006316967916050815,-0.5776439057791644
1660172557571831,-0.278507667658503,-0.06109712367437226,0.9901884489204242,-0.01100800444066432,0.09519670888495152,-0.01344836661903377,-0.001655718698572491,-0.00646152910144022,-0.5777620987537392
1660172557587832,-0.2693522545204852,-0.06060883497367797,0.9937285420004578,-0.0108291124919863,0.09415483377902152,-0.01319258963816755,-0.00170948795367542,-0.006607102266258226,-0.5778781723007755
1660172557603832,-0.269962615396353,-0.05365072098878443,0.9947051194018464,-0.01093788719043062,0.0933065650421297,-0.01258014336729953,-0.001772680255617558,-0.00674881881783162,-0.5779977730308572
1660172557619832,-0.270817120622568,-0.05743495841916513,0.9904325932707714,-0.01115457421581523,0.09269082287679048,-0.01175183865885641,-0.001844586571726848,-0.006883478003182092,-0.5781239907373807
1660172557635832,-0.2721599145494773,-0.04754711223010588,0.9812771801327536,-0.01131089429863728,0.09232947037595683,-0.01086449645533647,-0.001922888974853721,-0.007007307799648293,-0.5782571386569488
1660172557651833,-0.2866865033951322,-0.03143358510719452,0.9762722209506371,-0.01129417114712198,0.09219045440107265,-0.01004651808736214,-0.002004201752501109,-0.007119173780769979,-0.5783952802226212
1660172557667833,-0.2863202868696115,-0.03839169909208806,0.9735866330968186,-0.01107136555507985,0.09224016021805376,-0.00937378004360408,-0.002084779179715728,-0.007222020534134573,-0.5785353043022147
1660172557683833,-0.2822919050888837,-0.05658045319295013,0.9704127565423057,-0.01068696806045762,0.09246952973924061,-0.008861172244659462,-0.002160809829663352,-0.007317894670291421,-0.5786741964173241
1660172557699833,-0.2811932555123215,-0.05426108186465228,0.9671168078126193,-0.01023759836060593,0.09281928490699493,-0.008466982750559082,-0.002229064309842402,-0.007405559132728605,-0.5788100822942979
1660172557715834,-0.2789959563591973,-0.05096513313496587,0.9759060044251164,-0.009832297517309239,0.09315114230593806,-0.008123829569312884,-0.002288119315670672,-0.007483442907488654,-0.5789427338610045
1660172557731834,-0.2807049668116273,-0.04107728694590662,0.980300602731365,-0.009550716567605521,0.09333425347013748,-0.007774267934111574,-0.002338916275099825,-0.007550786867074884,-0.5790734299303151
1660172557747834,-0.2841229877164873,-0.03143358510719452,0.9842069123369193,-0.009413434124826189,0.09331553016368363,-0.007393441813457037,-0.002384001093124175,-0.00760714775608088,-0.579204250176211
1660172557763835,-0.2774090180819409,-0.03912413214312949,0.9921416037232014,-0.009374969245828872,0.09310229882050851,-0.007012734689884614,-0.002426211804508248,-0.007653246988746287,-0.5793370711198017
1660172557779835,-0.268253604943923,-0.05474937056534657,0.9990997177080949,-0.009340701060517934,0.09271299296422365,-0.006715207627251197,-0.002467751702014535,-0.007691647869402483,-0.5794726436161745
1660172557795837,-0.2675211718928816,-0.07061875333791123,0.9951934081025406,-0.009200894397140435,0.09214525649166744,-0.006573586637160439,-0.002510091311100162,-0.007727026600670336,-0.5796100789087358
1660172557811837,-0.2811932555123215,-0.05841153582055369,0.9701686121919586,-0.008870883115445807,0.09139527066306533,-0.006604832035085075,-0.002554387151464057,-0.007765309925915004,-0.579746930033297
1660172557827838,-0.2843671320668344,-0.053772793163958,0.9655298695353629,-0.008323515355436018,0.09052170833832446,-0.006795788028319827,-0.002601402581771619,-0.007811531732245644,-0.5798798574625106
1660172557843838,-0.2903486686503394,-0.05316243228809014,0.9605249103532465,-0.007600393510639561,0.08965540494654331,-0.007120819387654238,-0.002650745342628976,-0.00786947987167971,-0.5800056370530352
1660172557859838,-0.2969405661097122,-0.04022278171969162,0.9595483329518579,-0.006797517124719803,0.08891838878238142,-0.00751412701501078,-0.002700639142196355,-0.007941303357831341,-0.5801221439858075
1660172557875838,-0.2887617303730829,-0.04779125658045302,0.9740749217975129,-0.006032906740684789,0.08836727235306994,-0.00787163242855558,-0.002748751480125874,-0.008024694549945434,-0.5802289746541553
1660172557891839,-0.2783855954833294,-0.05487144274052014,0.98628213931487,-0.005408833238447808,0.08801107647133362,-0.008088136942024675,-0.002793133941648438,-0.008112661226047433,-0.5803274992576378
1660172557907839,-0.2746013580529487,-0.04669260700389088,0.983718623636225,-0.004981229183337958,0.08782502980019299,-0.008083043174784471,-0.002832691905068734,-0.008196959181606216,-0.5804203533816885
1660172557923839,-0.2704509040970473,-0.04803540093080017,0.9894560158693828,-0.004746389177841962,0.08775325779603742,-0.007832205851671383,-0.002867309814510715,-0.008270340376535483,-0.580510584062757
1660172557939839,-0.2717936980239566,-0.04766918440527945,0.9887235828183414,-0.00464786817454373,0.08774272714262303,-0.007391343859042957,-0.002897501698515592,-0.00832759859507967,-0.5806007505506315
1660172557955840,-0.2761882963302051,-0.05157549401083372,0.9824979018844893,-0.004599016996506815,0.08776324065338988,-0.006865227604590523,-0.002923717651381091,-0.008366459197221884,-0.5806922602021793
1660172557971840,-0.2777752346074616,-0.04571602960250232,0.9827420462348364,-0.004513377596108691,0.08778573329490157,-0.006362850053042023,-0.002945964722143752,-0.008387092661580614,-0.5807851317514043
1660172557987840,-0.2754558632791637,-0.04376287479972518,0.9824979018844893,-0.004333198239916857,0.08777260185673584,-0.005971216647347919,-0.002963929288378232,-0.008391710186451571,-0.5808782279863886
1660172558003841,-0.2818036163881894,-0.04364080262455161,0.9767605096513314,-0.004046642807497043,0.08769020125895255,-0.005721377340260464,-0.002977320530529031,-0.008384909734776819,-0.5809698491373393
1660172558019841,-0.287052719920653,-0.04303044174868376,0.9667505912870986,-0.003689248973328989,0.087513062887765,-0.005575349521057598,-0.002986286287540341,-0.008372934086938877,-0.581058478766304
1660172558035841,-0.2818036163881894,-0.04876783398184159,0.9757839322499429,-0.003329896581469094,0.08723058423237288,-0.005460897562505929,-0.002991666575855706,-0.008362197064206232,-0.581143432622077
1660172558051841,-0.2765545128557259,-0.05987640192263655,0.9783474479285879,-0.003044982167084239,0.08685718839732276,-0.005302139883160815,-0.002994868897317419,-0.008357084673837624,-0.5812251929105499
1660172558067842,-0.2787518120088501,-0.05389486533913157,0.9782253757534143,-0.002888902786528172,0.08642169864703349,-0.005031098026430163,-0.00299757821208172,-0.008356866792663498,-0.5813053042929271
1660172558083842,-0.274235141527428,-0.04742504005493231,0.9883573662928207,-0.00287085278222486,0.08595381915018951,-0.004613294266697186,-0.00300148563714019,-0.008356515474457489,-0.581385833533943
1660172558099842,-0.2775310902571144,-0.04486152437628732,0.9817654688334478,-0.002945464009695278,0.08549294063905681,-0.004073365301817821,-0.003007844951913242,-0.008352145455385708,-0.5814685516394531
1660172558115844,-0.273380636301213,-0.04400701915007232,0.9844510566872664,-0.003020808700105896,0.08508850131866788,-0.003495929669769538,-0.003016859614996928,-0.00834248981554641,-0.5815541222432408
1660172558131845,-0.2653238727397573,-0.05487144274052014,0.9951934081025406,-0.002982641687799859,0.08475831659999389,-0.00299626513063957,-0.003027469689253238,-0.008325859529482935,-0.5816415662337159
1660172558147845,-0.2715495536736094,-0.04827954528114731,0.9901884489204242,-0.002728964712052833,0.08444996565618898,-0.002663362200429084,-0.003038039942639472,-0.008301346608372399,-0.5817281779199091
1660172558163845,-0.2761882963302051,-0.03546196688792236,0.98457312886244,-0.002205717123821112,0.08408509117658559,-0.002521845406584234,-0.003047388596273394,-0.008271773094713183,-0.581809993057247
1660172558179845,-0.2797283894102387,-0.04596017395284946,0.9754177157244222,-0.001432167583171239,0.08365164719651903,-0.002544014305151723,-0.003054974222895301,-0.008240928940135778,-0.5818827660058135
1660172558195846,-0.2874189364461737,-0.04876783398184159,0.9577172503242544,-0.0005049655474255739,0.08321385427391387,-0.002668537490391213,-0.003060251673073586,-0.008210394644068805,-0.5819431832327706
1660172558211846,-0.2863202868696115,-0.05401693751430514,0.9534447241931794,0.0004237489718314877,0.08283627749732651,-0.00280521448029555,-0.00306239121914337,-0.008181382899751479,-0.5819899153725486
1660172558227846,-0.283634699015793,-0.05780117494468584,0.9643091477836272,0.001188860381944098,0.08254547435403331,-0.002855335871069888,-0.003060688911348128,-0.008155512017797656,-0.5820241613914487
1660172558243847,-0.2778973067826351,-0.0470588235294116,0.9804226749065386,0.001662341356019219,0.08235232246540737,-0.002743753009204013,-0.003054878245999717,-0.00813189198930675,-0.5820494690203806
1660172558259847,-0.2678873884184023,-0.04559395742732875,0.9987335011825742,0.001794128258031409,0.08225857320246216,-0.002437005931634505,-0.003045040986200316,-0.008107094438009719,-0.5820708169508573
1660172558275847,-0.2664225223163195,-0.04046692607003877,1.002883955138476,0.001628889309011479,0.08224536569492025,-0.001951575820439349,-0.003031446671462686,-0.008077878489334035,-0.5820932258203274
1660172558291847,-0.2704509040970473,-0.03741512169069949,0.9958037689784085,0.001292163174249939,0.08229426711802036,-0.001362166456146821,-0.003014259814720344,-0.008040619401306723,-0.5821203596136111
1660172558307848,-0.2689860379949645,-0.04486152437628732,0.9931181811245899,0.0009510768101149434,0.08240732809224835,-0.0007892504185889673,-0.002992979047848498,-0.007991212498317529,-0.5821535494069395
1660172558323848,-0.2766765850308994,-0.05157549401083372,0.9779812314030671,0.0007637826908186032,0.08256586653911616,-0.000351563526933398,-0.002966262641800538,-0.007928727349332271,-0.5821915191671172
1660172558339848,-0.2820477607385365,-0.04107728694590662,0.9711451895933472,0.0008342540827921895,0.08269202781229035,-0.0001220080121033453,-0.00293267223547593,-0.00785570115623096,-0.5822308896110063
1660172558355848,-0.2805828946364537,-0.04571602960250232,0.9710231174181736,0.001186251236069078,0.08268858601731516,-0.000114495689632064,-0.002891636140115579,-0.007775980731433017,-0.5822672600352605
1660172558371849,-0.2821698329137101,-0.05511558709086728,0.9701686121919586,0.001763047027468748,0.08248280416931343,-0.0002777037967997374,-0.002843910709810946,-0.007695577440906105,-0.5822964865394158
1660172558387849,-0.2803387502861066,-0.03790341039139378,0.97431906614786,0.002450187257652561,0.08202640310996911,-0.0005006505070690617,-0.002791740876325091,-0.007620896347007832,-0.5823157902504508
1660172558403849,-0.2766765850308994,-0.05511558709086728,0.9782253757534143,0.003112048586848891,0.0813206888647424,-0.0006534816887044748,-0.002738661526753446,-0.007554379352486608,-0.5823244022159534
1660172558419849,-0.2771648737315937,-0.05645838101777656,0.9749294270237279,0.00363088943574723,0.08044006911197353,-0.0006326783460317511,-0.00268861802164227,-0.00749528066207308,-0.5823235846982061
1660172558435852,-0.272526131074998,-0.05560387579156156,0.9822537575341421,0.003937928234588595,0.07948285423020278,-0.0003841142262581303,-0.002644991631962968,-0.007441528814345828,-0.5823160897235247
1660172558451852,-0.2694743266956587,-0.05413900968947871,0.9926298924238957,0.00402839184628115,0.07852290406789296,8.61590404308641e-05,-0.002610165416352004,-0.007388548060829572,-0.5823052634496416
1660172558467852,-0.2669108110170137,-0.05316243228809014,0.9920195315480278,0.003957371004309883,0.07761334283815252,0.0007187124600345745,-0.002585383315377026,-0.00733095933787156,-0.5822940527127957
1660172558483852,-0.2724040588998244,-0.04779125658045302,0.9886015106431678,0.003819126862767102,0.07678714383872809,0.001421638851616274,-0.002570690125730891,-0.007266345164474195,-0.5822842010033722
1660172558499853,-0.2688639658197909,-0.03668268863965807,0.9895780880445564,0.003717014851561641,0.07606839228724228,0.002088611786253448,-0.002564945087403475,-0.007195227705512408,-0.5822758643551442
1660172558515853,-0.2774090180819409,-0.05499351491569371,0.97944609750515,0.003734451674157908,0.07550439506377873,0.002626550979919669,-0.002565717732875344,-0.00711938032663427,-0.5822677047440984
1660172558531853,-0.2799725337605858,-0.04632639047837017,0.9630884260318915,0.003915883474755849,0.07514064454939784,0.002982578519345355,-0.002569353070093225,-0.007041207607337956,-0.5822573619005809
1660172558547854,-0.2826581216144044,-0.05145342183566015,0.9643091477836272,0.004261423659427609,0.0749647154625103,0.003134970822835129,-0.002571670423198629,-0.00696282782635789,-0.5822421221308425
1660172558563854,-0.2732585641260394,-0.05365072098878443,0.9810330357824064,0.004734772118365756,0.07490721916661852,0.003084519208301195,-0.002568973553423495,-0.006885571700333462,-0.5822195663819277
1660172558579854,-0.271671625848783,-0.05340657663843729,0.9887235828183414,0.00527923657551307,0.07486195463498119,0.002886478819464567,-0.002559007851784706,-0.006810636284828883,-0.5821880212188631
1660172558595854,-0.275944151979858,-0.03338673990997165,0.9909208819714657,0.005832928398305154,0.07470509279644624,0.002657551133422263,-0.002541800900578309,-0.006739558321313934,-0.582146759088053
1660172558611855,-0.276798657206073,-0.0365606164644845,0.9850614175631343,0.006337630404797449,0.07436378333859049,0.002517877710161733,-0.002519690949570924,-0.006673929030798709,-0.5820960091538313
1660172558627855,-0.278507667658503,-0.05047684443427158,0.97261005569543,0.006742527837185549,0.07385838766053376,0.002545928317124254,-0.002496175236390436,-0.006613848934851013,-0.582036873750107
1660172558643855,-0.2796063172350651,-0.05157549401083372,0.970901045243,0.007007189328139048,0.07323673148843315,0.002784547493225869,-0.002474765094644314,-0.006556338955315934,-0.5819711932216229
1660172558659855,-0.2748455024032959,-0.05584802014190871,0.9738307774471657,0.007106487694617018,0.07251330132577614,0.00324004096264774,-0.002458738392278942,-0.006496694555012578,-0.5819013375508282
1660172558675856,-0.2670328831921873,-0.05853360799572727,0.98457312886244,0.00703720399247618,0.07170432945482563,0.003862941095862423,-0.002450989536464887,-0.006431310847782062,-0.5818299003297921
1660172558691856,-0.2634927901121538,-0.06158541237506654,0.9926298924238957,0.006824332975461849,0.07086655871096113,0.004563848476116226,-0.002453354200760984,-0.006358456088694257,-0.5817592966568672
1660172558707856,-0.2703288319218737,-0.04803540093080017,0.9886015106431678,0.006522736646370683,0.07007110605657035,0.005256635342153837,-0.002466082621669423,-0.006278103874116013,-0.5816912994112801
1660172558723857,-0.2807049668116273,-0.03387502861066594,0.9823758297093157,0.006209409820635984,0.06937601524719322,0.005863978087510624,-0.002487878909656486,-0.006192503082670503,-0.5816266204007607
1660172558739857,-0.2746013580529487,-0.03167772945754166,0.9918974593728542,0.005967146568609046,0.06883935119553652,0.006298137368086897,-0.002515984871687144,-0.00610544647271598,-0.5815646902904376
1660172558755859,-0.2713054093232623,-0.05535973144121442,0.9882352941176471,0.00586575022557552,0.06851768430733485,0.006490183633053189,-0.002546223464559543,-0.006019413240421733,-0.5815037284767777
1660172558771859,-0.275089646753643,-0.05426108186465228,0.9770046540016786,0.005945829984838518,0.06842428046868289,0.006440722668843518,-0.002573662073361319,-0.005934710094421697,-0.5814410826418159
1660172558787860,-0.2775310902571144,-0.05865568017090084,0.9737087052719922,0.006208893318952584,0.06851378924620076,0.006209548679271742,-0.002593832983304466,-0.005852032862149725,-0.5813737614231012
1660172558803860,-0.2837567711909665,-0.0462043183031966,0.9645532921339743,0.006618254610271192,0.06872166144373162,0.005868070464114132,-0.002603555201439157,-0.005772421158214817,-0.5812990517033358
1660172558819860,-0.284489204242008,-0.03399710078583951,0.9707789730678265,0.007111426827383706,0.06899349646214578,0.005478847785808552,-0.002601007839506406,-0.00569436487960284,-0.5812150437983635
1660172558835860,-0.2763103685053787,-0.03472953383688093,0.9831082627603571,0.007618569324980855,0.06927193575746816,0.005099838448346591,-0.002585626263838461,-0.005615439632441183,-0.5811208896284781
1660172558851861,-0.2757000076295109,-0.03326466773479808,0.9877470054169528,0.008079765397276019,0.06948410814840429,0.004794989185570188,-0.002558235535727819,-0.005535558523204891,-0.5810167668226534
1660172558867861,-0.2698405432211795,-0.05145342183566015,0.9903105210955978,0.008455365400821297,0.06955835119731488,0.004635134335379929,-0.002521201103882508,-0.005455014904579671,-0.5809036458848403
1660172558883861,-0.2698405432211795,-0.05389486533913157,0.9821316853589686,0.008727018793549052,0.06944955055598166,0.004672127443859935,-0.00247818838027473,-0.005372549029339217,-0.5807829670038408
1660172558899861,-0.2720378423743037,-0.05633630884260299,0.9783474479285879,0.008892049695610044,0.06915191257622733,0.004914713624147546,-0.002433458422028264,-0.005287309680747742,-0.5806563358135608
1660172558915862,-0.275944151979858,-0.04974441138323016,0.9719996948195622,0.008956439094777786,0.06870349842467455,0.005336461207459708,-0.002390978988173768,-0.005199644899834767,-0.5805253258732106
1660172558931862,-0.2794842450598916,-0.0462043183031966,0.9735866330968186,0.008929823087755979,0.06818017215755517,0.005888633734562575,-0.002353629294011846,-0.005109668976717895,-0.5803913876983289
1660172558947862,-0.2706950484473944,-0.04461738002594018,0.9898222323949035,0.008823424503270999,0.06766794836355214,0.006503259797942492,-0.002322701923082732,-0.005016405606506698,-0.5802558119484728
1660172558963863,-0.2672770275425345,-0.04583810177767589,0.9947051194018464,0.00865034446794407,0.06723530989463482,0.007116112449702822,-0.002297892133207333,-0.004918166161970046,-0.5801197009615701
1660172558979863,-0.2710612649729152,-0.04473945220111375,0.9909208819714657,0.008425974987891436,0.0669314525015941,0.00769751760534648,-0.002277706088318841,-0.004813815474188553,-0.5799839285894373
1660172558995863,-0.2735027084763866,-0.04791332875562659,0.9800564583810178,0.008166898668943528,0.06679173164659832,0.008241836079180958,-0.002259924539192568,-0.004702752130529243,-0.5798491110141123
1660172559011863,-0.2731364919508659,-0.0424200808728159,0.9759060044251164,0.007890171713665779,0.06683300002237444,0.008731403140767728,-0.002241874666048909,-0.004583242432161651,-0.5797156025650804
1660172559027864,-0.2743572137026016,-0.04681467917906446,0.9757839322499429,0.007615814099018621,0.06705401138731278,0.009128378226700295,-0.00222055452542188,-0.004453341550283513,-0.5795834656271056
1660172559043864,-0.276798657206073,-0.04559395742732875,0.9800564583810178,0.007371567029629235,0.0674354100208962,0.009388845576149258,-0.002192778534993361,-0.004313885648840624,-0.5794523706299527
1660172559059864,-0.2755779354543373,-0.04608224612802303,0.9901884489204242,0.007195837176473394,0.06792292890551539,0.009471065425454422,-0.002155528828412815,-0.004167716845914992,-0.5793214539283
1660172559075897,-0.2726482032501716,-0.03851377126726163,0.987136644541085,0.00713526012845791,0.06842611930570879,0.009345832339603316,-0.002106506280117247,-0.004016664244198444,-0.5791891842911678
1660172559091898,-0.275089646753643,-0.04254215304798947,0.9843289845120928,0.007235289441219783,0.06885208083084254,0.009012224827785085,-0.002044561153703277,-0.003862109052313561,-0.5790533030639703
1660172559107898,-0.2746013580529487,-0.04827954528114731,0.9822537575341421,0.007525208205175952,0.06911406395517708,0.008506315077375813,-0.001969928425927471,-0.003706930352874513,-0.5789109492552043
1660172559123899,-0.2794842450598916,-0.04571602960250232,0.9770046540016786,0.008003021878993752,0.06909787738496793,0.007902747181605642,-0.001884677565848858,-0.003554787329026751,-0.5787590401193309
1660172559139900,-0.2826581216144044,-0.04071107042038591,0.9732204165712979,0.008627171264223951,0.06868187935001631,0.007303621517110021,-0.001793218612765236,-0.003409263151493593,-0.5785948405197587
1660172559155901,-0.283634699015793,-0.04766918440527945,0.9689478904402229,0.009319338754542507,0.06783171156608439,0.006809717121709922,-0.001701854087579374,-0.003273752661792701,-0.5784165708922187
1660172559171901,-0.2807049668116273,-0.05865568017090084,0.9667505912870986,0.009979402727477533,0.06664387353240481,0.006493456916849908,-0.001617149614522688,-0.003149601402976176,-0.5782238825565799
1660172559187902,-0.2724040588998244,-0.06524757763027411,0.96919203479057,0.010510416898438,0.06528196181747706,0.006387665064690773,-0.001544291319567113,-0.003035614998392231,-0.5780180078924012
1660172559203903,-0.2669108110170137,-0.07049668116273766,0.9778591592278936,0.01084627923040909,0.06389387197225076,0.006486003697813318,-0.001486415261285368,-0.002931503916639489,-0.5778014697436161
1660172559219904,-0.2683756771190966,-0.06097505149919868,0.9909208819714657,0.01097139704588388,0.06258047268048474,0.006748489578012703,-0.001444751133314297,-0.002838579060175825,-0.5775774307425957
1660172559235904,-0.2684977492942702,-0.04339665827420447,0.9938506141756314,0.01092398411975221,0.06141575033817046,0.007103090110313021,-0.001418871664864002,-0.002755034412949526,-0.5773488920869096
1660172559251905,-0.271671625848783,-0.03912413214312949,0.9972686350804914,0.01078151836756055,0.06048884089683213,0.007453800653515379,-0.001406549740102727,-0.002674912780540608,-0.5771179591886525
1660172559267906,-0.2730144197756923,-0.04217593652246876,0.9876249332417792,0.01063427188459112,0.05990429705605554,0.007714318083478033,-0.001403489251977214,-0.00259315852158626,-0.5768853950694163
1660172559283907,-0.2814373998626687,-0.0491340505073623,0.968337529564355,0.01055587402304839,0.05971669576157501,0.007837690018907946,-0.001403760227804464,-0.002507990957953967,-0.576650634838075
1660172559299907,-0.2786297398336766,-0.04425116350041947,0.9695582513160907,0.01058048458588495,0.05988592701036582,0.007809795659183329,-0.001401089129963399,-0.002419335281108806,-0.5764122441875611
1660172559315908,-0.2783855954833294,-0.04693675135423803,0.9759060044251164,0.01069563876854326,0.0603182730673873,0.00764276663711522,-0.001390121885716035,-0.002328549381826954,-0.5761686106250493
1660172559331909,-0.2760662241550316,-0.05218585488670158,0.9762722209506371,0.01085297204879201,0.06092008375820038,0.007389278074252589,-0.001367061375761274,-0.002237486239851367,-0.5759186077671105
1660172559347910,-0.2758220798046844,-0.04303044174868376,0.9755397878995957,0.01098997694990116,0.06158880360692501,0.007132201542182723,-0.001330011164826847,-0.002145049445089617,-0.5756620149590734
1660172559363910,-0.2765545128557259,-0.04193179217212162,0.983718623636225,0.01105376693947422,0.06220090464656407,0.006941960192002409,-0.001279253254278149,-0.002047101363267128,-0.5753995547022135
1660172559379911,-0.2741130693522544,-0.03253223468375666,0.9879911497673,0.0110195967277444,0.06266069299428233,0.006852296543399089,-0.001217004027244481,-0.00194101540483928,-0.5751325632888485
1660172559395904,-0.2758220798046844,-0.0453498130769816,0.9894560158693828,0.01089826952767872,0.06293647622798638,0.006866126330413775,-0.001146508169187848,-0.001827506537043264,-0.5748624695279795
1660172559411905,-0.2741130693522544,-0.04168764782177448,0.9823758297093157,0.01073049246857801,0.06302304572877106,0.006959428974544929,-0.001071181040627972,-0.001708176239067475,-0.5745902873256958
1660172559427906,-0.272526131074998,-0.0394903486686502,0.9826199740596628,0.01057198018581052,0.06291898538134633,0.007078859188843172,-0.000994174228187828,-0.00158558876294369,-0.5743162577852255
1660172559443906,-0.2700846875715266,-0.06097505149919868,0.9807888914320593,0.01047591964776918,0.06266046854735038,0.007158752003716631,-0.0009179225862662522,-0.001465214217976013,-0.5740397372386407
1660172559459907,-0.2722819867246509,-0.06146334019989297,0.9744411383230336,0.01047859193454779,0.0623085039593593,0.007154637191970845,-0.0008437474831189918,-0.001351962267192706,-0.5737593735329347
1660172559475908,-0.2728923476005187,-0.05621423666742942,0.9789578088044557,0.01059126962844739,0.06189312067950759,0.007057718587741212,-0.0007721269705223614,-0.00124572307783054,-0.573473468829775
1660172559491909,-0.2805828946364537,-0.03802548256656735,0.9776150148775464,0.01079910276394352,0.06143601397391146,0.006885458696980515,-0.0007032159196282441,-0.00114429903691897,-0.5731803676233842
1660172559507909,-0.2842450598916608,-0.04425116350041947,0.9756618600747693,0.01106623965537096,0.06100337420410833,0.006674762538031707,-0.0006367782709134922,-0.001047036810498898,-0.5728788059614691
1660172559523910,-0.281071183337148,-0.04425116350041947,0.9748073548485543,0.01134468934455052,0.06065992042874239,0.006477517767681806,-0.0005720265867451133,-0.0009528785412537561,-0.5725681865504341
1660172559539911,-0.2731364919508659,-0.04229800869764233,0.9812771801327536,0.01158341402479312,0.06039787233545529,0.00634845228111023,-0.0005082057134803001,-0.000860134615864162,-0.5722487027683439
1660172559555912,-0.2671549553673609,-0.05474937056534657,0.9868925001907378,0.01173548872508036,0.06016348178764036,0.006337815931558697,-0.0004454068928128323,-0.0007686627940078211,-0.571921318337689
1660172559571912,-0.2688639658197909,-0.05572594796673513,0.9822537575341421,0.0117627112262019,0.05991687143205145,0.006486092756882445,-0.0003847331403185024,-0.0006779832235998397,-0.5715876792032435
1660172559587913,-0.2659342336156252,-0.06073090714885154,0.9843289845120928,0.01163794453718193,0.05962731943046288,0.00680545557349937,-0.0003279874917432287,-0.000585763341166006,-0.5712499672182052
1660172559603914,-0.2684977492942702,-0.04718089570458517,0.9834744792858778,0.01134718186355791,0.05924081046754565,0.007269768384925808,-0.0002775046467338915,-0.0004900295557251442,-0.5709106951757047
1660172559619915,-0.2780193789578087,-0.03631647211413735,0.98115510795758,0.01089336484337677,0.05870541575407821,0.007836437684720369,-0.0002360790698617181,-0.0003893322050051032,-0.5705724685613717
1660172559635915,-0.2809491111619744,-0.03729304951552592,0.9770046540016786,0.01030089598889773,0.05805874754795642,0.008463700652852835,-0.0002062679469580575,-0.0002822276167028836,-0.570237680408743
1660172559651916,-0.2796063172350651,-0.05438315403982585,0.9745632104982072,0.009618467633378551,0.05745272070131725,0.00908818145672274,-0.0001888960144883862,-0.0001697728643730778,-0.5699081232794768
1660172559667917,-0.2615396353093766,-0.07318226901655622,0.9933623254749371,0.00891936876974306,0.05701370150278054,0.009616926407660837,-0.0001822359366756485,-5.604894185125102e-05,-0.5695845945592062
1660172559683918,-0.2617837796597238,-0.0678110933089191,1.000320439459831,0.008296266342543167,0.05670158191220291,0.009982269558396499,-0.0001833213290768684,5.504848825855276e-05,-0.5692665728422537
1660172559699918,-0.2727702754253452,-0.0462043183031966,0.98286411841001,0.00784557845279401,0.0564039242029507,0.01016967328326962,-0.0001899145914266722,0.0001620823402654903,-0.5689520517641116
1660172559715911,-0.2752117189288166,-0.05133134966048658,0.9805447470817121,0.007643355082277037,0.05613638271985869,0.01015363054426048,-0.0002002889199378198,0.0002656156068207641,-0.5686376661621337
1660172559731912,-0.2706950484473944,-0.04901197833218873,0.9784695201037614,0.007723407108493069,0.05603857355825601,0.009868600808323622,-0.0002112777361901791,0.0003661249801831176,-0.5683191734278186
1660172559747913,-0.2783855954833294,-0.0491340505073623,0.9710231174181736,0.008065974735365996,0.0561966056471792,0.009289847406914208,-0.0002177892390422308,0.0004625661962611863,-0.5679922071414449
1660172559763914,-0.281071183337148,-0.05157549401083372,0.9719996948195622,0.00859678688710282,0.0565581520253747,0.008489558204374666,-0.000214686574404113,0.0005533128805431256,-0.5676531463651142
1660172559779914,-0.2796063172350651,-0.04876783398184159,0.9733424887464714,0.009196745563397193,0.05699895749079666,0.00759811103612716,-0.0001988651733524178,0.0006374256236726947,-0.567299917278358
1660172559795915,-0.279362172884718,-0.04266422522316304,0.9739528496223393,0.009723286814633228,0.05740699415241443,0.006762369579141402,-0.0001699647079565184,0.0007143642267704768,-0.5669325351821027
1660172559811916,-0.2781414511329823,-0.05206378271152801,0.9770046540016786,0.01003881258091544,0.05770568385440126,0.00613181099694869,-0.0001301150979417746,0.0007838894514539977,-0.5665532494176463
1660172559827917,-0.2766765850308994,-0.04779125658045302,0.976882581826505,0.01003886914731216,0.0578426204049489,0.005824731491659101,-8.340937865666982e-05,0.0008470228896785004,-0.5661662453660476
1660172559843917,-0.2702067597467002,-0.05535973144121442,0.9817654688334478,0.009674451558749565,0.05779352080591506,0.005887810669336997,-3.513063084288311e-05,0.0009059817516695358,-0.5657769393411072
1660172559859918,-0.2669108110170137,-0.06366063935301769,0.9895780880445564,0.008964351284984368,0.05757696888839185,0.006293278012054709,9.323557925240613e-06,0.0009628672625893418,-0.5653909889725411
1660172559875919,-0.2680094605935759,-0.05340657663843729,0.9893339436942092,0.00799393401505622,0.05725161403288221,0.006961397061272092,4.55207553463708e-05,0.001019775260865439,-0.5650132235681172
1660172559891920,-0.263981078812848,-0.05877775234607441,0.9926298924238957,0.006898469590197341,0.0569054421839816,0.007770246081557227,7.085065360349285e-05,0.00107987235051841,-0.5646467234376052
1660172559907920,-0.2620279240100709,-0.06243991760128154,0.9951934081025406,0.005834178570065004,0.05662298448361186,0.00856734023208113,8.499511183932169e-05,0.001146302850082256,-0.5642922485537175
1660172559923921,-0.2660563057907988,-0.05401693751430514,0.9940947585259785,0.004944433131279132,0.05641922809939248,0.009217491192271334,8.947544853585591e-05,0.001220252475341463,-0.5639481625494497
1660172559939922,-0.274235141527428,-0.04205386434729519,0.9790798809796293,0.004328168208129537,0.05623847009940381,0.009647033453097548,8.636576073648653e-05,0.001301215905437759,-0.5636108928471811
1660172559955923,-0.2761882963302051,-0.04437323567559304,0.9750514991989014,0.004017792969365736,0.05605462624623012,0.009836185220145113,7.754699235063564e-05,0.001387887969656904,-0.563275819789482
1660172559971923,-0.2758220798046844,-0.05621423666742942,0.97431906614786,0.003974645001061569,0.055918224647482,0.009804517067057069,6.507023314708581e-05,0.00147789560717331,-0.5629383668302327
1660172559987924,-0.2746013580529487,-0.05572594796673513,0.96577401388571,0.004104006165456867,0.05588464001254216,0.009618991458675214,5.137437308304522e-05,0.001567738563489059,-0.5625950095483512
1660172560003925,-0.271671625848783,-0.06292820630197626,0.9744411383230336,0.004283346158753545,0.05596103627520688,0.009376625908941656,3.867616634325869e-05,0.001653563893077463,-0.5622439492639968
1660172560019926,-0.2647135118638895,-0.06512550545510054,0.9864042114900435,0.004395366378759426,0.05612563849094001,0.00916889497382517,2.833793468082473e-05,0.001732605000268404,-0.5618853052928034
1660172560035919,-0.2686198214694437,-0.05584802014190871,0.9851834897383078,0.004357508715094042,0.05634262148230607,0.009071797705324933,2.065397539193544e-05,0.001804946998222944,-0.5615208106293156
1660172560051920,-0.2728923476005187,-0.04303044174868376,0.985427634088655,0.004139290521467168,0.05657613517076981,0.009131145827354201,1.493575140283296e-05,0.001873043895503409,-0.5611531167364621
1660172560067920,-0.2680094605935759,-0.04718089570458517,0.9882352941176471,0.003763692445753058,0.05682746978103227,0.009334278567926587,1.01236274399159e-05,0.001938589735246083,-0.5607849296699891
1660172560083921,-0.2739909971770809,-0.05438315403982585,0.978591592278935,0.003295422142641879,0.05712443281266982,0.009618184551073657,5.663113229275717e-06,0.002001425706945132,-0.5604182442608956
1660172560099922,-0.2719157701991302,-0.04937819485770945,0.9784695201037614,0.002820340820328786,0.05746107186610318,0.009895178506797763,1.754742914824789e-06,0.002061548170907697,-0.560053860275123
1660172560115923,-0.265690089265278,-0.05682459754329727,0.9866483558403907,0.002421094428010093,0.05779366702195817,0.01006263287600172,-9.82984603519442e-07,0.002119706094149847,-0.5596912479188141
1660172560131923,-0.2644693675135423,-0.06256198977645555,0.9823758297093157,0.002155684343932743,0.05808444933249733,0.01003515232616837,-1.743111907421494e-06,0.002175210805208281,-0.5593287553057061
1660172560147924,-0.2671549553673609,-0.06512550545510054,0.9812771801327536,0.002042879812116385,0.05829283934560014,0.009791125017047552,1.675773766752521e-07,0.002224117807783788,-0.5589641008954105
1660172560163925,-0.2747234302281223,-0.05389486533913157,0.9781033035782407,0.002055627442310749,0.05834831634450877,0.009372581297744537,4.592024559421214e-06,0.002261931025925513,-0.5585950682378716
1660172560179926,-0.281071183337148,-0.03912413214312949,0.9754177157244222,0.002124607365810458,0.05819702947361204,0.008854203016379507,1.004576118081258e-05,0.002289270946799674,-0.5582202502976723
1660172560195926,-0.281925688563363,-0.04425116350041947,0.9719996948195622,0.002152842982337701,0.05786821266001131,0.008329118173815545,1.420349744466701e-05,0.002310837352131554,-0.5578395962721613
1660172560211927,-0.2761882963302051,-0.05572594796673513,0.9739528496223393,0.002038839432738379,0.05746035104089132,0.007901298467683454,1.483714982217221e-05,0.002328375852440229,-0.5574546066420859
1660172560227928,-0.2688639658197909,-0.07318226901655622,0.9783474479285879,0.001703361567255322,0.05707162546937558,0.00766720375915182,1.027996112058999e-05,0.002340896718913501,-0.5570681888941746
1660172560243929,-0.263981078812848,-0.08087281605249119,0.98286411841001,0.001113018004969126,0.0567565855913618,0.007693118195625216,-7.273270793998685e-07,0.002349750682598125,-0.556684156663933
1660172560259929,-0.2681315327687495,-0.05987640192263655,0.9872587167162585,0.0002931972218749164,0.05654287657365013,0.007985814923534106,-1.916654959616517e-05,0.002357378672634755,-0.5563063906220802
1660172560275930,-0.2655680170901045,-0.04608224612802303,0.9960479133287556,-0.0006740754953526374,0.05648279508552921,0.008468450365052529,-4.518530117920798e-05,0.002364866935588673,-0.5559379038453073
1660172560291931,-0.2681315327687495,-0.04168764782177448,0.9927519645990692,-0.001666559734082546,0.05666556417533468,0.008999128861835945,-7.70756122382703e-05,0.002373848240533476,-0.5555800891791224
1660172560307932,-0.2688639658197909,-0.04144350347142733,0.9859159227893493,-0.002548965536841954,0.0571573511335775,0.009424580071885985,-0.0001108719189103638,0.002386874727739902,-0.555232300488441
1660172560323932,-0.2680094605935759,-0.05560387579156156,0.98286411841001,-0.003205762468699918,0.0579383342991085,0.009619712566282036,-0.0001411733097532366,0.002404880188504301,-0.554891888276285
1660172560339933,-0.2703288319218737,-0.06439307240405912,0.97773708705272,-0.003570869457495569,0.05889120637313956,0.00950752654499277,-0.0001627191557548656,0.002425741706901272,-0.5545547427527897
1660172560355926,-0.2738689250019073,-0.04876783398184159,0.973464560921645,-0.003645054800092827,0.05983141487046425,0.009077383108603903,-0.0001719876242185668,0.002444943869272674,-0.5542162279351169
1660172560371927,-0.2744792858777751,-0.04266422522316304,0.9746852826733807,-0.003496725138306666,0.06057485501992064,0.00839025230261526,-0.0001682099465201647,0.002457104838256089,-0.5538722639406017
1660172560387928,-0.2770428015564201,-0.04986648355840373,0.9701686121919586,-0.003246973905338276,0.06100525356068604,0.007565654321904583,-0.0001534178988646844,0.002456986476926504,-0.5535202877452264
1660172560403928,-0.2807049668116273,-0.05206378271152801,0.9723659113450829,-0.003043251248251625,0.06107847368659918,0.006758465462719067,-0.0001318499073864735,0.002441222062338416,-0.5531598896818407
1660172560419929,-0.2749675745784694,-0.06439307240405912,0.9754177157244222,-0.003027925412680664,0.06078980726649041,0.006125874020621617,-0.0001093292394559447,0.002410898597053723,-0.5527930000582681
1660172560435930,-0.2717936980239566,-0.06292820630197626,0.9826199740596628,-0.003308840123074151,0.06016634149943223,0.005794326029457203,-9.265747999458607e-05,0.00237000394419142,-0.5524235589857348
1660172560451931,-0.2675211718928816,-0.05828946364538012,0.9878690775921264,-0.003938607223217597,0.05928236300881053,0.005835682366749978,-8.872668977780379e-05,0.002321086916994438,-0.5520567630964055
1660172560467931,-0.2611734187838559,-0.05828946364538012,0.9933623254749371,-0.004906970965574356,0.05828002955748068,0.006251896754552547,-0.0001032249645292124,0.002265924386161953,-0.5516981297388208
1660172560483932,-0.2634927901121538,-0.06024261844815726,0.9921416037232014,-0.006146259237771357,0.05737677573543341,0.006976593993909048,-0.0001390923469784776,0.002208032013107889,-0.5513525605482354
1660172560499933,-0.2628824292362859,-0.06793316548409267,0.9844510566872664,-0.007546621340253047,0.05681697715369685,0.007887688795065906,-0.0001953167892149209,0.002151056639346228,-0.5510235350487104
1660172560515934,-0.2653238727397573,-0.06561379415579482,0.9823758297093157,-0.00897720488899483,0.05677906479406095,0.008815616397168503,-0.0002667914929729816,0.002098253174485643,-0.5507126085853344
1660172560531934,-0.2645914396887159,-0.05572594796673513,0.9884794384679942,-0.01030857824147735,0.0573146593007814,0.009572246782086744,-0.0003453856063606151,0.002053170605930328,-0.5504192731411439
1660172560547935,-0.2687418936446173,-0.04766918440527945,0.9881132219424735,-0.0114320728052787,0.0583480446926543,0.01001390664183536,-0.0004218076711126595,0.002016900340493349,-0.5501411177317798
1660172560563936,-0.2788738841840237,-0.02569619287403668,0.9833524071107043,-0.01227527750765172,0.05971628009721676,0.01007992863148061,-0.0004876009674976115,0.001988144837762713,-0.5498742846483424
1660172560579937,-0.2781414511329823,-0.02154573891813527,0.9846952010376135,-0.01281309504212068,0.06124393444134084,0.009775819978580624,-0.0005364301292761836,0.001966100954039323,-0.5496141584123084
1660172560595937,-0.2789959563591973,-0.04437323567559304,0.9774929427023729,-0.01307174662771107,0.06279761281644812,0.009153638833795641,-0.0005643266099502539,0.001947834029818568,-0.5493561220760796
1660172560611938,-0.2746013580529487,-0.05621423666742942,0.9694361791409172,-0.01312435002402476,0.06425333850552477,0.008312332469639404,-0.0005697054910379401,0.001927298954689342,-0.5490963247443128
1660172560627939,-0.2715495536736094,-0.06427100022888554,0.9719996948195622,-0.01307736420115294,0.0654516220466002,0.00738635161487131,-0.0005538756669108661,0.00190128554571817,-0.5488323738713072
1660172560643940,-0.2717936980239566,-0.06878767071030767,0.97431906614786,-0.01304824273525919,0.06624219687345861,0.006520740676623737,-0.0005214065339551027,0.001870184028938307,-0.5485636955788048
1660172560659940,-0.2753337911039901,-0.05902189669642155,0.9699244678416115,-0.01313944653546912,0.06655331565565052,0.005842492875989304,-0.000479490775923538,0.001832244472943098,-0.5482914455488072
1660172560675964,-0.276798657206073,-0.0499885557335773,0.9798123140306707,-0.01341645849604242,0.06639483453106744,0.005424467474627337,-0.0004365470559062855,0.001782854234044465,-0.5480180842152115
1660172560691965,-0.2777752346074616,-0.04473945220111375,0.9844510566872664,-0.01389541556761025,0.06583703205392419,0.00526520126960018,-0.0004007231420025434,0.001718768143606202,-0.5477467294196953
1660172560707965,-0.2705729762722209,-0.04815747310597374,0.9873807888914321,-0.01454364849221901,0.06501174654211783,0.005304859341780766,-0.0003785209206096833,0.001639913952949868,-0.5474803932645147
1660172560723966,-0.2590981918059052,-0.06756694895857196,0.9926298924238957,-0.01529321193706354,0.06409240018296167,0.005459261902326005,-0.0003737516545750277,0.001548036484899051,-0.5472212987614813
1660172560739967,-0.2599526970321202,-0.07293812466620908,0.9872587167162585,-0.01606350031260943,0.06323478120819996,0.005649349582967094,-0.0003872935892348553,0.001445542842540426,-0.5469704860582637
1660172560755968,-0.2655680170901045,-0.07391470206759765,0.9798123140306707,-0.01678674367111611,0.0625472120948449,0.005811745797354654,-0.0004176263037647984,0.001335024804874471,-0.5467278105277789
1660172560771968,-0.2720378423743037,-0.06536964980544768,0.9746852826733807,-0.01742816021082997,0.06211907027083701,0.005893933332768466,-0.0004613968243287101,0.001218226141272431,-0.5464922998583805
1660172560787969,-0.2791180285343708,-0.05181963836118086,0.966628519111925,-0.01799285109974005,0.06203349511958556,0.005857737008427015,-0.0005136945199365936,0.001095901680045191,-0.5462627344264255
1660172560803970,-0.2832684824902723,-0.04107728694590662,0.9710231174181736,-0.01851811660028692,0.06233090480214894,0.00569094164947099,-0.0005685509535949683,0.000969105666162152,-0.5460382355992154
1660172560819971,-0.274235141527428,-0.03668268863965807,0.983718623636225,-0.01905670098542767,0.06298987007834732,0.005410595893744308,-0.000619884584489307,0.0008397061143703794,-0.5458186523629524
1660172560835971,-0.2672770275425345,-0.04962233920805659,0.9875028610666057,-0.01965824339643911,0.06394637168785047,0.005061326135133582,-0.0006624510204862664,0.0007097500483004395,-0.545604653917435
1660172560851972,-0.2634927901121538,-0.05120927748531301,0.98970016021973,-0.0203557491738129,0.06510373688710282,0.004705820606385576,-0.0006925462931560884,0.0005804989416102685,-0.5453975617211945
1660172560867973,-0.2652018005645838,-0.05328450446326372,0.9912870984969864,-0.02116087973835901,0.06634276831295056,0.004399786097382004,-0.0007084330516624027,0.0004521957128484702,-0.5451990445919197
1660172560883974,-0.2704509040970473,-0.05365072098878443,0.9805447470817121,-0.02206659134062041,0.06756066419067122,0.004169928168052416,-0.0007102388973189199,0.0003251409069169563,-0.5450108121977884
1660172560899974,-0.274235141527428,-0.0575570305943387,0.970901045243,-0.023053016415159,0.06868743060549076,0.004011882529421976,-0.0006993752135698566,0.0001996351219761871,-0.5448343647431051
1660172560915975,-0.2749675745784694,-0.04791332875562659,0.9771267261768521,-0.02409281440963365,0.06965041514341799,0.003903957260681252,-0.0006781348552256528,7.492533127347913e-05,-0.5446708220526069
1660172560931976,-0.2739909971770809,-0.04571602960250232,0.9850614175631343,-0.02515420879178964,0.07036260215270722,0.003826566275315944,-0.0006497494666543417,-4.975113810082223e-05,-0.5445208410965356
1660172560947977,-0.2732585641260394,-0.04864576180666802,0.9834744792858778,-0.02620344459687839,0.07077622607026134,0.003769108529724426,-0.0006182618031384869,-0.0001742163453883573,-0.544384573114585
1660172560963977,-0.2669108110170137,-0.04779125658045302,0.9890897993438621,-0.02720937899005543,0.07092352548013164,0.003720562460581559,-0.0005877342257222156,-0.0002987765095612792,-0.5442616482150574
1660172560979978,-0.2649576562142366,-0.06659037155718339,0.9872587167162585,-0.02815020602011174,0.07088410071262803,0.003666490722741595,-0.0005613513926906529,-0.0004251590173667986,-0.5441512555873759
1660172560995971,-0.2670328831921873,-0.05731288624399156,0.9801785305561914,-0.02902078449676352,0.07073532560678548,0.003594948350201003,-0.0005411042274474048,-0.0005559532924947382,-0.5440523550988549
1660172561011972,-0.2611734187838559,-0.06060883497367797,0.9887235828183414,-0.02983819919282678,0.07054733285495306,0.003501867027496795,-0.0005278972290674198,-0.0006937216237459364,-0.5439639972158038
1660172561027973,-0.269962615396353,-0.06231784542610797,0.9788357366292821,-0.03064184762626387,0.07039674306610459,0.003400485385707778,-0.0005216545397158129,-0.0008398766868788037,-0.5438856893437402
1660172561043974,-0.2800946059357594,-0.0499885557335773,0.9656519417105365,-0.0314861674881645,0.07037570449945417,0.003314644328896814,-0.000521279050056234,-0.0009937127768633097,-0.5438177020527256
1660172561059974,-0.2700846875715266,-0.05780117494468584,0.9807888914320593,-0.03242635209833068,0.0705954850074684,0.003254665415327768,-0.0005244005602481349,-0.001152155601751668,-0.5437611970529392
1660172561075975,-0.2704509040970473,-0.05499351491569371,0.9813992523079271,-0.03349910818109263,0.07113481250766696,0.003225067441025053,-0.0005273912023257682,-0.001310892758853657,-0.5437180753924756
1660172561091976,-0.270817120622568,-0.04754711223010588,0.982009613183795,-0.03470629402396441,0.07196311379019206,0.003241366907222079,-0.0005263685376353819,-0.001466627132065287,-0.5436905321822808
1660172561107977,-0.2702067597467002,-0.03643854428931093,0.9910429541466392,-0.03601032330119606,0.07297965221960161,0.003296552324053987,-0.0005183923930148621,-0.001618161788683312,-0.5436804590725953
1660172561123977,-0.2652018005645838,-0.05011062790875087,0.9954375524528878,-0.03734237620652518,0.07412126943608095,0.003336398952235999,-0.0005014113173728652,-0.001765312623655293,-0.5436888973956774
1660172561139978,-0.2638590066376745,-0.0491340505073623,0.9927519645990692,-0.03862064925510179,0.07534481854687637,0.003302755148246652,-0.000473658780710299,-0.001907679299515471,-0.5437156993415274
1660172561155979,-0.2647135118638895,-0.0499885557335773,0.987136644541085,-0.03977558166311605,0.0765407509194216,0.003175271472723572,-0.0004341098931571941,-0.002045561874743239,-0.5437595115100837
1660172561171980,-0.2722819867246509,-0.05011062790875087,0.973464560921645,-0.04077412749157255,0.07756780722799186,0.002958676184997874,-0.0003834125838934042,-0.002182019309320929,-0.5438181416817583
1660172561187980,-0.2714274814984359,-0.05279621576256943,0.9761501487754636,-0.04163246244815165,0.07835159209150655,0.002661653264224695,-0.000323760267021843,-0.002322489078976135,-0.5438892446641461
1660172561203981,-0.2722819867246509,-0.06121919584954583,0.9738307774471657,-0.04241112707121047,0.07889169038433452,0.002307664905945255,-0.000257991219321364,-0.002471776497832994,-0.5439710960603573
1660172561219982,-0.279362172884718,-0.05255207141222229,0.96748302433814,-0.04319425559920573,0.07921154682590184,0.001949323806514193,-0.0001890867649368994,-0.002631839361639891,-0.5440631525627623
1660172561235983,-0.275944151979858,-0.05816739147020655,0.9772487983520257,-0.04406091512479262,0.07934913281810868,0.001644589820279645,-0.0001200436694943573,-0.002801934619113584,-0.5441661944336623
1660172561251983,-0.2697184710460059,-0.0508430609597923,0.9848172732127871,-0.04505806950101627,0.07936894784692045,0.001416646428959936,-5.347233437365153e-05,-0.002980327986630176,-0.544282009905062
1660172561267984,-0.2638590066376745,-0.06182955672541368,0.9901884489204242,-0.04618331736323193,0.0793434871624956,0.001245963944612157,8.952052064539967e-06,-0.003166011538431076,-0.5444127287895757
1660172561283985,-0.2653238727397573,-0.05328450446326372,0.9899443045700771,-0.04738426089474507,0.07932563860705483,0.001083932015276279,6.669604347561806e-05,-0.003359481437336039,-0.5445600248317786
1660172561299986,-0.2619058518348973,-0.05938811322194226,0.9900663767452507,-0.04857642538278171,0.07934985896615249,0.000859845393282014,0.0001203090264620971,-0.003563001714200069,-0.5447244616509168
1660172561315979,-0.2637369344625009,-0.05499351491569371,0.9859159227893493,-0.04967347980843301,0.07944813779155993,0.0004999338861276063,0.0001713791258092631,-0.003779559138148533,-0.5449052357657481
1660172561331979,-0.2713054093232623,-0.05181963836118086,0.9809109636072328,-0.05061923483426903,0.07964905969314867,-2.932665539520445e-05,0.0002223439667038266,-0.004010096631722455,-0.5451004316322507
1660172561347980,-0.276798657206073,-0.05938811322194226,0.9748073548485543,-0.05141180055104381,0.07996131795916579,-0.0006903024095211187,0.0002758839143688017,-0.004252433767539537,-0.5453077022787853
1660172561363981,-0.2807049668116273,-0.05059891660944515,0.9696803234912643,-0.05211233720588072,0.08036846978052271,-0.001383321004723116,0.0003340776065413997,-0.004503814480325056,-0.5455251706938758
1660172561379982,-0.2727702754253452,-0.05877775234607441,0.9759060044251164,-0.05283392135948477,0.08084471768414467,-0.001973598173037124,0.0003977746051152335,-0.004763469979237641,-0.5457523131114433
1660172561395982,-0.2752117189288166,-0.05267414358739586,0.9680933852140079,-0.05371223462615653,0.08137176465271957,-0.002317797750280742,0.000466407974577321,-0.005031393535164404,-0.5459905649229289
1660172561411983,-0.2705729762722209,-0.04803540093080017,0.9765163653009843,-0.05486663967419374,0.08194390816575854,-0.002307727364556774,0.0005382397967548712,-0.005304830584811376,-0.5462434128409447
1660172561427984,-0.2622720683604181,-0.0575570305943387,0.9873807888914321,-0.05636303701921801,0.08256552566657641,-0.00192129298470834,0.0006110030310788755,-0.005577875912688816,-0.5465158509021104
1660172561443985,-0.2554360265506981,-0.05328450446326372,0.9976348516060121,-0.05818888025396193,0.08324031066033566,-0.001233996316679124,0.000682701128767931,-0.005845491521613167,-0.5468132933170103
1660172561459985,-0.2507972838941024,-0.05816739147020655,1.007156481269551,-0.06024875342711024,0.08396103839396285,-0.0003857595964759053,0.0007521754803633764,-0.006105478333423706,-0.5471402746906073
1660172561475986,-0.2589761196307316,-0.05352864881361086,0.9988555733577478,-0.06238451729098818,0.08471631951016016,0.0004544764145665921,0.0008193745290210616,-0.006356436017404175,-0.5474993183131132
1660172561491987,-0.2680094605935759,-0.04425116350041947,0.9859159227893493,-0.06441525321092574,0.08550233631029255,0.001106691730060632,0.0008855377477884254,-0.006598289256619754,-0.5478902497404353
1660172561507988,-0.2664225223163195,-0.05865568017090084,0.9889677271686885,-0.06618355114107649,0.08631376885898309,0.001409630759711473,0.0009532070771736163,-0.006832853639776941,-0.5483101952350392
1660172561523988,-0.2744792858777751,-0.04901197833218873,0.9735866330968186,-0.06759363040846192,0.08712576402510426,0.001275151969079518,0.001025713939518267,-0.007061662703287951,-0.5487542827672435
1660172561539989,-0.2775310902571144,-0.05352864881361086,0.970046540016785,-0.06863265744064419,0.08791058598610288,0.0007132437549074281,0.00110633931075724,-0.007290212994065601,-0.5492167326533425
1660172561555990,-0.2743572137026016,-0.05572594796673513,0.9719996948195622,-0.06937106433709304,0.0886806642535526,-0.0001948628581014318,0.001197894888517424,-0.007527299006537018,-0.5496921770012206
1660172561571991,-0.2721599145494773,-0.06121919584954583,0.970901045243,-0.06994144555704962,0.08948320742052428,-0.001317203082906963,0.001302754732549196,-0.007766953982441203,-0.5501770334363575
1660172561587991,-0.271671625848783,-0.05743495841916513,0.97602807660029,-0.0705032293372926,0.0903375612714989,-0.00247595603367081,0.001422517078026466,-0.007963900821594923,-0.5506705187243163
1660172561603992,-0.2675211718928816,-0.05487144274052014,0.9798123140306707,-0.07120489295382035,0.09120894710023623,-0.00348512631821196,0.001557220341738047,-0.007966810670426256,-0.5511755564214383
1660172561619993,-0.2706950484473944,-0.0470588235294116,0.9834744792858778,-0.07215288645433557,0.09206081897228634,-0.004205914952538022,0.001705111968703721,-0.007433541003484504,-0.551698773573972
1660172561635986,-0.269962615396353,-0.04864576180666802,0.9877470054169528,-0.07339272534868907,0.09290922608494068,-0.004574036760887467,0.001863487230116265,-0.005924559476380441,-0.5522457951814679
1660172561651987,-0.2652018005645838,-0.05816739147020655,0.9878690775921264,-0.07490490409430864,0.09379960278271175,-0.004598049552940383,0.002029846337221767,-0.003194452726213968,-0.5528127518730319
1660172561667987,-0.2675211718928816,-0.05242999923704872,0.98115510795758,-0.07661496978586371,0.09473560311462956,-0.004346886790663378,0.002202341156177331,0.0006187701624663098,-0.5533849946926956
1660172561683988,-0.266544594491493,-0.05560387579156156,0.9855497062638285,-0.07841429961946463,0.09565507620549621,-0.003938778406101531,0.002379468297455023,0.005101452523138248,-0.5539473802362793
1660172561699989,-0.2642252231631952,-0.06256198977645555,0.9866483558403907,-0.0801859165712597,0.09647241185563225,-0.003527036068265911,0.002559788003890658,0.009838221669169393,-0.5544931529363455
1660172561715990,-0.2636148622873273,-0.05560387579156156,0.9865262836652171,-0.08182929484428925,0.09712433060264807,-0.003270537770371515,0.002742078761156068,0.0146059599601621,-0.5550214216160418
1660172561731990,-0.2667887388418402,-0.05804531929503298,0.9842069123369193,-0.083280127278248,0.09758853903781159,-0.003301285482625802,0.002925690600017087,0.01935077184147253,-0.5555309125508705
1660172561747991,-0.2711833371480887,-0.05096513313496587,0.9765163653009843,-0.08452202865880072,0.09787829708091679,-0.003702813774132408,0.003110773936670514,0.02405808373919617,-0.5560194680575707
1660172561763992,-0.2724040588998244,-0.05206378271152801,0.9763942931258107,-0.08558739298481016,0.09801572031972304,-0.00448847974392587,0.00329811268460002,0.02870329863091791,-0.5564858789715017
1660172561779993,-0.2710612649729152,-0.05487144274052014,0.9759060044251164,-0.08654748139648615,0.09802592818715108,-0.005578532360611278,0.00348855335724588,0.03326590165123867,-0.5569301461411871
1660172561795993,-0.2746013580529487,-0.06353856717784412,0.9735866330968186,-0.08749510494775112,0.09797742994098088,-0.006798276310059097,0.003682574374871406,0.03773481687984688,-0.5573535204914536
1660172561811994,-0.2705729762722209,-0.06353856717784412,0.975173571374075,-0.08852406794561796,0.09800711830923492,-0.007911224572144158,0.003880433574392767,0.04210283439197607,-0.5577589457963615
1660172561827995,-0.2717936980239566,-0.05340657663843729,0.9782253757534143,-0.08970978701921439,0.09829434835600391,-0.008671642097678293,0.004082652062866806,0.04626076492078267,-0.5581604605638332
1660172561843996,-0.2623941405355916,-0.05133134966048658,0.9879911497673,-0.09109550746754061,0.09902574663833652,-0.00886573911485812,0.004290449653370587,0.04986332762113239,-0.5585997643246382
1660172561859996,-0.2636148622873273,-0.05841153582055369,0.9925078202487221,-0.09268705908971306,0.1003423888046227,-0.008339493784748936,0.004505846665208235,0.05248476000363622,-0.5591362758307982
1660172561875997,-0.267399099717708,-0.05145342183566015,0.98628213931487,-0.09445792686806348,0.1022512602381794,-0.007049560353855502,0.004731101341195157,0.05397115905781696,-0.5598062291314239
1660172561891998,-0.2684977492942702,-0.04193179217212162,0.9912870984969864,-0.0963628063809525,0.1045908018425945,-0.005143915661076666,0.00496782137986029,0.05452150814785212,-0.5606034558524401
1660172561907999,-0.2680094605935759,-0.03704890516517878,0.9856717784390021,-0.09835118164081956,0.1070819147899449,-0.003010296730971949,0.005216706413864687,0.05448060903859481,-0.5614981466167273
1660172561923999,-0.267399099717708,-0.04974441138323016,0.9850614175631343,-0.100372939924494,0.109355202171622,-0.001240264919248906,0.005477882515499862,0.0541934362324264,-0.5624551634573595
1660172561940000,-0.265690089265278,-0.06439307240405912,0.9781033035782407,-0.1023749263399906,0.1109368233452272,-0.000536818213821209,0.005750814062776434,0.05402010440805589,-0.5634349220007718
1660172561955993,-0.2737468528267337,-0.05902189669642155,0.9701686121919586,-0.1042890553223231,0.1112770859081877,-0.0015996712006085,0.006033487165251586,0.05441527488017142,-0.5643852121030266
1660172561971994,-0.2752117189288166,-0.05426108186465228,0.9710231174181736,-0.1060128289020084,0.1098766412493073,-0.004948663841184734,0.00632150006964461,0.05585963691386863,-0.5652452398800412
1660172561987995,-0.2764324406805523,-0.05206378271152801,0.971755550469215,-0.1073951511104077,0.1065350731868435,-0.01068282378275311,0.006608079777853521,0.05848280454125418,-0.5659810759082253
1660172562003996,-0.2781414511329823,-0.04962233920805659,0.9704127565423057,-0.1082406226386697,0.1015084810214916,-0.01826020101220462,0.006885068041809491,0.06183292308376676,-0.566616038251699
1660172562019996,-0.2709391927977416,-0.06121919584954583,0.9762722209506371,-0.1083308914443826,0.095411729905126,-0.02632267974771135,0.007142740283242386,0.06529806368517137,-0.5671983224103391
1660172562035997,-0.2617837796597238,-0.07891966124971406,0.9964141298542764,-0.1074753092974917,0.08924520775705479,-0.03264248717616382,0.007368217713511527,0.06863441983815456,-0.5677422620740862
1660172562051998,-0.2891279468986037,-0.2340733958953232,0.9793240253299764,-0.1055714501246135,0.08423523288905961,-0.03439683529353088,0.007543843363272749,0.07189461548209002,-0.5682306894187811
1660172562067999,-0.2847333485923551,-0.3456473640039674,1.043167772945754,-0.1026736463946432,0.08066906027707195,-0.02885484554281977,0.00764022664087741,0.0751476761492849,-0.5686501453887769
1660172562083999,-0.2857099259937437,0.1195696955825127,0.8578622110322724,-0.0992522915821451,0.07751513300837369,-0.01467855645460886,0.007606535840802011,0.07846310496666843,-0.5689959607277305
1660172562100000,-0.2119783321889068,0.3008468757152665,0.6677958342870225,-0.09673517273752669,0.07460111741135704,0.006193675930314104,0.007385985355640718,0.08184968847814167,-0.5692886013464011
1660172562116001,0.1387350270847643,-0.00848401617456318,1.11140611886778,-0.09750953671849016,0.07380325573874404,0.02788535500121399,0.006964833976120688,0.08502211491357679,-0.5696241734573054
1660172562132002,0.4153505760280769,-0.1112687876707104,1.28572518501564,-0.1033999776796899,0.07659783038744898,0.04337656850308119,0.006404132250257513,0.08744988969134004,-0.5701699615804208
1660172562148002,0.3588311589227127,0.1680323491264213,1.088578622110322,-0.114174688010427,0.0823834777160764,0.04917289575968647,0.005813035097176001,0.08876408431488154,-0.5710698824700373
1660172562164003,0.3528496223392077,0.08014038300144932,1.391439688715954,-0.1280347976957495,0.0903023849436435,0.04725510884523818,0.005296639173472065,0.0889978947218512,-0.5723717566418522
1660172562180004,0.1785305561913484,0.1647364003967349,0.9442893110551616,-0.1429592463930118,0.1003848053441643,0.04259452682212529,0.004926507256011275,0.08844946124833769,-0.5740462491672399
1660172562196004,0.1758449683375298,0.02020294499122599,0.9821316853589686,-0.1574309975252525,0.1122193912108581,0.03915051952931507,0.004735855195217692,0.08746980045275547,-0.5760344855636839
1660172562212005,0.1997711146715497,0.04071107042038591,0.9552758068207829,-0.17066222876145,0.1246041564410279,0.03811890460542287,0.004726120688212866,0.0863772353877694,-0.5782712119246435
1660172562228006,0.212222476539254,0.05828946364538012,0.9826199740596628,-0.182541865616049,0.1367067479967234,0.03904058021771552,0.004881720851860962,0.08545759991789405,-0.5806916295784665
1660172562244007,0.2040436408026247,0.05194171053635444,0.973464560921645,-0.1933139830203532,0.1483372302548808,0.04116975356446015,0.005184828888333114,0.08502609330888516,-0.583227690621596
1660172562260007,0.1820706492713819,0.05267414358739586,0.9613794155794615,-0.2031390205644121,0.1593569171378409,0.04350497713191442,0.005622347419690658,0.08549835255463074,-0.5857975415859066
1660172562276031,0.1935454337376976,0.07244983596551435,0.9907988097962921,-0.211698269944069,0.1692211720524724,0.04438042314138192,0.006187129711013532,0.08733352667655864,-0.5883055905355969
1660172562292032,0.2915693904020751,0.1124895094224456,1.08235294117647,-0.2179886251089007,0.1768730574874079,0.0414502846241162,0.006876994483001435,0.09079252481880908,-0.5906636302939853
1660172562308033,0.5237506675822079,0.2896162355992979,1.126665140764477,-0.2204499668632793,0.1815361070891843,0.03286456931254515,0.00769385624702378,0.09566621392530657,-0.5928231742096953
1660172562324033,0.3410086213473713,-0.01019302662699317,1.292317082475013,-0.2176868398524842,0.1837090539218597,0.01962849813848505,0.008641099510289288,0.1013123893707773,-0.5947838147441099
1660172562340034,0.005920500495918191,0.01263447013046459,0.8759288929579618,-0.2093750269018448,0.1842978554685269,0.005891253013239084,0.009711238495030264,0.1071002611390718,-0.5965500901927924
1660172562356035,-0.2444495307850767,0.05157549401083372,0.6723125047684446,-0.1962495266316263,0.1829807612030768,-0.004375740500020639,0.01086836668042602,0.1127710538085736,-0.5980850880877473
1660172562372036,-0.3712825207904173,-0.01434348058289459,0.7024643320363166,-0.179387948853439,0.1790656056463184,-0.009927311665629856,0.01204869676463939,0.1183276672198648,-0.5993265756789579
1660172562388036,-0.3550469214923324,-0.09881742580300612,0.8357671473258561,-0.1596985116033665,0.1733710077986903,-0.01097313172211243,0.01318517923320749,0.1237889266450874,-0.6002276920422194
1660172562404037,-0.4144960708018615,-0.5797817959868774,1.007766842145418,-0.1376840169028501,0.167002341539549,-0.007067315518618025,0.01422314604374724,0.1291682593900516,-0.6007574175030044
1660172562420038,-0.2755779354543373,0.06829938200961294,0.828686961165789,-0.113686019195093,0.1592297317286352,0.002689243568723416,0.01510514060118939,0.1344787879093982,-0.6008958731693179
1660172562436039,-0.1107804989700161,0.4324406805523768,0.6610818646524761,-0.08890173243633831,0.1492649661261214,0.01753359010805123,0.01576262718358471,0.1395549879730834,-0.6006820780803913
1660172562452039,0.1668116273746856,-0.09332417792019543,1.09224078736553,-0.06617697671450713,0.1385578374890699,0.03344507121193091,0.01615076429066294,0.143979743485251,-0.600253844350312
1660172562468040,0.855420767528801,0.02789349202716096,1.142778667887389,-0.04875791291201349,0.1290800089904349,0.04535503622026242,0.0162847443240328,0.147381945654395,-0.5997834387429317
1660172562484041,0.2357824063477532,-0.2444495307850767,0.8250247959105819,-0.03826468507253639,0.1216515812217435,0.05230860087684355,0.01622316927655688,0.1497727372833603,-0.5993711791893914
1660172562500042,0.05731288624399156,0.04083314259555948,0.9060807202258339,-0.03449728438837368,0.1170649782222067,0.05807281109467519,0.01602454361869406,0.15153727407802,-0.5990251663078344
1660172562516042,-0.01422140840772101,-0.08245975432974761,0.9268329900053409,-0.03621053729718179,0.1163184065386204,0.06526445162165015,0.01573422809175869,0.1532165493111836,-0.5987054193089459
1660172562532043,-0.1038223849851225,-0.03045700770580595,0.9015640497444117,-0.04154784254676352,0.1193774140768921,0.07205218261090324,0.01540111028069256,0.1553086674527275,-0.5983569206177548
1660172562548044,0.03094529640650023,-0.01055924315251389,0.9827420462348364,-0.04811610626848883,0.1249817945162388,0.07502802690737599,0.01508606286345006,0.1581421959845385,-0.597922000642047
1660172562564045,0.1067521171892878,0.1095597772182799,1.10457007705806,-0.05306538502274472,0.1311905771155382,0.07150946096504959,0.01485214641371401,0.1618104166744114,-0.5973464026832768
1660172562580045,0.3147631036850536,0.1465476462958728,1.18623636224918,-0.05349463405057416,0.136289373959556,0.05958999686001743,0.01475546388603001,0.1660412516047273,-0.596617719006473
1660172562596038,0.2997482261387043,-0.1013809414816511,1.351155870908674,-0.0473194149759655,0.1399585353704118,0.03977435768736222,0.01484365100407682,0.1701115350888664,-0.5958164147238554
1660172562612039,-0.1148088807507439,-0.03582818341344307,0.7342030975814451,-0.03447516926929292,0.1427092803554587,0.01592142841748762,0.01514823961756726,0.1731887678153766,-0.5950641980618517
1660172562628040,-0.3131761654077976,0.1005264362554357,0.5398641947051193,-0.01705219750109992,0.1443315747258959,-0.007861891450893582,0.01567101179617052,0.1748550545319269,-0.5944013974903598
1660172562644041,-0.3966735332265201,0.06573586633096795,0.6207980468451968,0.002000333236733518,0.1442632087204169,-0.03029655206110596,0.01638688262607012,0.1752134097528847,-0.5937559690196217
1660172562660041,-0.4765087357900359,0.04364080262455161,0.7614251926451514,0.02029184925614456,0.1427982526168061,-0.05179843784286785,0.01726548170775729,0.1746201859545599,-0.5930143236496055
1660172562676042,-0.472236209658961,0.02667277027542525,0.8848401617456325,0.03680963094015843,0.1409392716497249,-0.07157629468698035,0.01828394241723567,0.1734225813419394,-0.59209196089271
1660172562692043,-0.5237506675822079,-0.1780422674906537,1.008743419546807,0.05197005001171773,0.1394372067315182,-0.08665436890947784,0.01941649790283515,0.1718455892891227,-0.5909571549647596
1660172562708044,-0.4914015411612116,-0.2118562600137333,1.003860532539864,0.06694166010394463,0.137557020389533,-0.09291610197950931,0.02060913791928917,0.16998228398248,-0.5896218993866118
1660172562724044,-0.4203555352101929,0.2383459220263981,0.7677729457541771,0.08254639211947831,0.1328261279953825,-0.08698924144110717,0.02175568283598633,0.1677686343735459,-0.5881423008271468
1660172562740045,-0.270817120622568,0.3602960250247955,0.5768520637827113,0.09787296071542333,0.1236722165880187,-0.06848649974583515,0.0227068879559373,0.1650303157488936,-0.5866096089573287
1660172562756046,0.1533836881055928,0.115785458152132,0.8090333409628441,0.1092414052788943,0.111529531569008,-0.04154952902524497,0.02332755079548798,0.1617334258344632,-0.5850960269004308
1660172562772047,0.52143129625391,-0.3529716945143817,1.376058594644084,0.1116722179873222,0.09826148999346332,-0.0137688919597569,0.0235522118397835,0.1580966341829818,-0.5836432249176002
1660172562788047,0.7226062409399558,0.1651026169222556,1.257892729076066,0.102498886178611,0.08369381494953816,0.008395592913747238,0.02338327543471035,0.1543647216223014,-0.5823221539261508
1660172562804048,0.3424734874494542,-0.498970016021973,1.283772030212863,0.08281368957241726,0.06815550412087819,0.02430670296307204,0.02285256491035935,0.1507261378772886,-0.5812250809670386
1660172562820049,0.208804455634394,0.05731288624399156,0.9767605096513314,0.05586433128121232,0.05445181848264766,0.03800329969670051,0.02199997384148217,0.1475376377712012,-0.5803808273522526
1660172562836050,0.2155184252689404,-0.03216601815823594,0.9778591592278936,0.02540467393159073,0.04496510458520814,0.05222756662737724,0.02087417908292691,0.1453648097892594,-0.5797336363174869
1660172562852050,0.2361486228732739,0.1466697184710464,0.9516136415655758,-0.005118369185280129,0.03971670219205486,0.06557086288711136,0.01953514884980914,0.1447373644126844,-0.5791904975964972
1660172562868051,0.2612954909590295,0.1583886472877092,1.008987563897154,-0.03281663586117893,0.03824172217474864,0.07486450835409689,0.01805806688986688,0.1459391902254993,-0.578658408039487
1660172562884052,0.3081712062256807,0.1611963073167013,1.091020065613794,-0.05520441403221293,0.040426929875364,0.07746482535024891,0.01653734896512186,0.1489098632268591,-0.5780670643507213
1660172562900053,0.4540474555580989,0.1002822919050885,1.181841763942932,-0.07021192775005977,0.04532029291141879,0.07160738817849935,0.0150776613601653,0.1532197232972107,-0.5773878568871016
1660172562916046,0.7075913633936066,0.2377355611505303,1.401815823605707,-0.07655653876574947,0.05142959323050851,0.05790770941218999,0.01377134160215838,0.1581329198175713,-0.576647772768684
1660172562932047,0.2199130235751889,0.01165789272907602,0.9566186007476922,-0.074370959765363,0.05822290310848975,0.0410238581351226,0.01267562896348185,0.1627482177945286,-0.5759408361764663
1660172562948047,-0.1178606851300832,0.08941786831464071,0.7196765087357901,-0.06515683269421473,0.06584916112105177,0.02742780132102361,0.01180061502299289,0.1663032821809349,-0.5753836000937211
1660172562964048,-0.3624933241779202,-0.02203402761882955,0.6570534828717483,-0.05081793198126748,0.07353470110016108,0.02099050798399788,0.0111107182359379,0.1686037721342519,-0.5749832454388251
1660172562980049,-0.3301441977569239,0.1663233386739913,0.7407949950408179,-0.03304471121503917,0.07930267008813296,0.02165950937587553,0.01053604968456188,0.1700999366025046,-0.5745755221527484
1660172562996050,-0.2794842450598916,0.1864652475776305,0.8190432593270769,-0.01329826619227922,0.08136642915908793,0.02749706643677767,0.009988621882480203,0.1713618447932297,-0.5739638734826867
1660172563012050,-0.07147325856412623,0.1871976806286719,1.02046234836347,0.007007631217447564,0.07946523529429284,0.03647794052409885,0.009382119460880998,0.1726029351348346,-0.573070759496384
1660172563028051,0.1189593347066449,0.01275654230563816,1.126909285114825,0.02623013054052574,0.07458097556908952,0.04674651646386141,0.008650741814454249,0.173764217862108,-0.5719213439885289
1660172563044052,0.2084382391088733,-0.004943923094529623,1.058182650492103,0.0425603727819755,0.06756448520980353,0.05639699629359639,0.007756418885357462,0.1746606569162425,-0.5706035268650507
1660172563060052,0.7794918745708399,0.3725032425421526,0.796826123445487,0.05449567052552361,0.05911712520624319,0.06393627299146992,0.006685412837988965,0.1749472726670288,-0.5692782288386782
1660172563076053,0.1129777981231399,-0.1604638742656594,0.8139162279697869,0.06123958583586304,0.05112525565676281,0.06947668426828774,0.005447418007945065,0.1744136117038266,-0.5680794434104052
1660172563092054,0.1218890669108106,0.09820706492713782,0.9597924773022051,0.06280281960000174,0.04618526354104586,0.0746199410019136,0.004076311699709007,0.1734371164335347,-0.5669641609552127
1660172563108055,0.1727931639581906,0.1544823376821549,1.012527656977188,0.05981410402239153,0.04544087723288263,0.08026726274037538,0.002621857053615572,0.1728063997189499,-0.5657658883390847
1660172563124055,0.1492332341496914,0.1660791943236442,0.9772487983520257,0.05318936770393198,0.04838662906029875,0.08540855905114926,0.001138665235206831,0.1730754793846575,-0.5643865566285332
1660172563140056,0.1343404287785157,0.1586327916380563,0.9827420462348364,0.04407313660203721,0.05446459471297455,0.08837496908615346,-0.0003153075410621366,0.1742836811644864,-0.5628666538476729
1660172563156057,0.1587548638132299,0.2279697871366446,1.03755245288777,0.03396062782733351,0.06328212994038954,0.08796441417903564,-0.001677203817193233,0.1761547397520771,-0.5613149013034783
1660172563172058,0.1804837109941255,0.2548256656748302,1.044632639047837,0.0246395404713327,0.0736734068743142,0.08306554864950851,-0.002885699698429175,0.1784149864433358,-0.5598054003069366
