Timestamp (microseconds),Gyro X (°/s),Gyro Y (°/s),Gyro Z (°/s),gyro vel x (dps),gyro vel y (dps),gyro vel z (dps),gyro disp x (deg),gyro disp y (deg),gyro disp z (deg)
1660172557083923,0.2746623941404778,0.8239871824216607,-2.655069810025225,0.310444448957155,1.139971935093945,-1.38580500564026,0,0,0
1660172557099919,2.777141985198796,-0.7629510948347615,-2.594033722438326,2.705462672653119,-0.5668874373360765,-1.350742355460413,0.02412725697288219,0.004584675982062946,-0.02189237888880538
1660172557115916,1.8616006713969,-0.3356984817273769,-1.495384145876187,1.975222508301967,0.1551939409941842,-0.1363849425180076,0.06157273842052288,0.001291128011327808,-0.03378939727263275
1660172557131912,0.4577706569009479,0.03051804379333589,-0.5188067444876197,0.4881342988004933,0.3285889827834546,0.6530611196908648,0.08127959287734257,0.005161391401548919,-0.02965598785524989
1660172557147909,-0.1525902189669068,-1.373311970702616,-0.9460593575952316,-0.05550548914029142,-1.437125814855929,0.2809122984293547,0.08474062335462419,-0.003706903255030878,-0.02218420051028813
1660172557163905,-1.373311970702616,-2.166781109330941,-1.312275883115944,-1.501210111225633,-1.209175815433323,0.2039022553270203,0.0722868985516968,-0.0248773162973449,-0.01830568408023713
1660172557179902,-2.716105897611897,0.6408789196611906,-0.8850232700083325,-2.583834434038467,0.567131127007096,0.09036419971402374,0.039606542189584,-0.03001367380475471,-0.01595155243990878
1660172557195898,-0.4577706569009479,-1.190203707942374,-2.655069810025225,-0.2850576218688151,-1.120084348242845,-1.282206909161687,0.01665540574232574,-0.0344372995746407,-0.02548629411549009
1660172557211895,2.594033722438326,-4.730296787975931,-3.814755474174035,2.402159917688525,-3.783181736034379,-2.387348458550653,0.03359222410888342,-0.07366342824885849,-0.05484273705718881
1660172557227891,1.251239795529045,-1.922636758983799,-2.777141985198796,1.289589289797525,-2.036115257485299,-1.760021090061069,0.06312621776877182,-0.1202178041970159,-0.08802169344608259
1660172557243888,-1.678492408636657,0.7629510948347615,-1.922636758983799,-1.326049623281455,1.042984188384382,-0.5156924819442472,0.06283453510090038,-0.1281628527498233,-0.1062274020221251
1660172557259884,-2.04470893415737,1.068131532768803,-0.9460593575952316,-2.369061732556676,1.562194990442408,0.3522139401315138,0.03327364425419534,-0.1073214193192089,-0.107535230356627
1660172557275880,-2.532997634851654,0.7629510948347615,-0.5798428320745188,-2.410656479832169,1.171709780019426,0.6189649942773758,-0.004964101444915422,-0.08545018115551427,-0.09976579888135585
1660172557291877,-1.739528496223329,0.3967345693140487,-1.129167620355474,-1.510123277366204,0.3524352768393127,0.1203187377160043,-0.0363303395025024,-0.07325702070064437,-0.09385152902540882
1660172557307873,0.09155413138023505,-1.129167620355474,-1.495384145876187,-0.04122561996242302,-0.6055038762090643,-0.1143151079055509,-0.04874113068113142,-0.07528156949560239,-0.09380349998692519
1660172557323870,0.1525902189669068,0.1525902189669068,-0.4577706569009479,0.09393658785595052,0.6831111543470726,0.7180976001709741,-0.0483194429379832,-0.07466071127049832,-0.0889732400488018
1660172557339866,-0.3356984817273769,2.166781109330941,0.213626306553806,-0.04297971581929166,2.072703305018045,1.49449968087714,-0.04791178796168993,-0.05261419559557738,-0.07127246180041689
1660172557355863,1.190203707942374,0.03051804379333589,0.3356984817273769,1.109518699669065,0.4731479130751409,1.628941548138418,-0.03937947609089175,-0.03224738585083189,-0.04628493196829243
1660172557371859,1.129167620355474,-0.9460593575952316,0.5798428320745188,1.04227635668368,-0.3624591499311016,1.868360163774113,-0.02216511564006979,-0.03136187574567958,-0.01830651827299219
1660172557387856,-0.9460593575952316,1.434348058289515,0.3967345693140487,-0.7529783387251487,1.433664350840181,1.601446686441437,-0.01985073149640154,-0.02279223413840694,0.009451936528732208
1660172557403839,-0.6408789196611906,0.7019150072480898,-1.739528496223329,-0.5871921803986755,1.047438779340688,-0.3985772478556093,-0.03057209564939213,-0.002943409096959983,0.01907489203741883
1660172557419835,1.373311970702616,-2.04470893415737,-4.119935912108076,1.297203196104862,-1.580501620659736,-2.920024665465671,-0.02489200752374265,-0.007207911827512368,-0.007473923269151406
1660172557435832,1.190203707942374,-1.678492408636657,-5.157549401083315,1.197479053323329,-1.368191461654374,-3.803723375858631,-0.004934549528317123,-0.03079745648602525,-0.06126390759974581
1660172557451828,-0.5188067444876197,0.6408789196611906,-4.60822461280236,-0.2203683083650286,0.6945699421233804,-3.414847582328606,0.002882336431349282,-0.03618642864227319,-0.1190124752652437
1660172557467825,0.5798428320745188,-0.7629510948347615,-4.913405050736174,0.2557912442550337,-0.09744839258899442,-3.618219498572054,0.003165719918469323,-0.03140945624599811,-0.175277011912449
1660172557483821,2.166781109330941,-3.265430685893079,-5.889982452124741,2.467625514356708,-3.169425926405176,-4.585890857860761,0.02495305398736326,-0.05754445079795147,-0.2409098947639115
1660172557499817,4.058899824521177,-4.974441138323073,-6.134126802471883,4.032697357745736,-4.678923304070175,-4.93052345943261,0.07695563696418281,-0.1203312446417543,-0.3170412093022585
1660172557515814,3.997863736934505,-4.180971999694748,-5.096513313496644,3.931373943782559,-3.651493405726886,-3.749456751529338,0.1406682073764092,-0.1869745783201308,-0.3864810509899541
1660172557531810,2.594033722438326,-1.8616006713969,-2.288853284504512,2.740819740143642,-1.789633450711834,-1.105872308013844,0.1940457568478188,-0.2305035931716405,-0.4253236834662996
1660172557547807,0.6408789196611906,-0.3356984817273769,0.7019150072480898,0.7356885455237039,0.02202378296571889,2.05747967904587,0.2218578231331576,-0.2446444705136094,-0.4177108244980434
1660172557563803,-1.373311970702616,0.5188067444876197,2.655069810025225,-1.566046064459649,1.063107419370512,3.879627661433375,0.21521496298167,-0.2359634208949196,-0.3702139657742094
1660172557579800,-1.739528496223329,-1.007095445181903,2.105745021744042,-1.554728969893004,-0.9707838694734713,3.355261080270539,0.1902487627068488,-0.2352248324957433,-0.3123348558405781
1660172557595796,0.9460593575952316,-5.035477225909744,0.7019150072480898,1.194734717593079,-4.735647065262519,2.018025073735014,0.1873688086884494,-0.2808762799736312,-0.2693485666085336
1660172557611793,2.594033722438326,-4.791332875562603,0.3356984817273769,2.117075042730606,-4.146914610209815,1.594797355945934,0.2138632867710388,-0.3519367733774099,-0.240445987171086
1660172557627789,-0.3356984817273769,0.3967345693140487,0.03051804379333589,0.1157261383487316,0.445844167894368,1.282939607780074,0.2317256962196735,-0.3815453369159335,-0.217424091461278
1660172557643786,-0.213626306553806,1.678492408636657,-1.190203707942374,-0.2082222044670114,1.878653564955281,0.06220220402338567,0.2309857276907273,-0.3629493550531362,-0.2066629569668503
1660172557659782,1.129167620355474,-0.3967345693140487,-2.105745021744042,0.9759764475739596,0.2460753894157535,-0.7661149939854734,0.2371277616355829,-0.345951523418168,-0.212294259286547
1660172557675778,-0.213626306553806,0.7629510948347615,-1.373311970702616,-0.1199596253078624,0.9277314582794248,-0.173250218715003,0.2439758962137117,-0.3365610686366066,-0.2198091809881508
1660172557691775,-1.190203707942374,1.678492408636657,-0.8239871824216607,-1.001077017710782,1.8479466726629,0.4749188538152223,0.2350076030695625,-0.314355643589068,-0.217395831907349
1660172557707771,1.739528496223329,-1.312275883115944,-1.190203707942374,1.639501976462028,-0.758592736643773,0.07751908709933909,0.2401150027395725,-0.305640812100915,-0.2129763283800326
1660172557723755,3.936827649347606,-2.777141985198796,-1.617456321049758,3.945861061496279,-2.669046225497621,-0.3539584102578368,0.2847979070432389,-0.3330619237980461,-0.2151878429653005
1660172557739751,2.349889372091184,-0.8239871824216607,-1.007095445181903,2.462645187233492,-0.263644610062099,0.2964724581321216,0.3360659570330771,-0.3565234504825239,-0.2156477305823062
1660172557755747,-0.4577706569009479,2.594033722438326,0.5188067444876197,-0.3873097681992688,2.621681754252327,1.701160487293887,0.3526686403853508,-0.337659153329002,-0.1996666670188982
1660172557771744,-2.105745021744042,2.594033722438326,1.190203707942374,-2.169196540424221,2.991566229667609,2.580128221206162,0.3322165899163629,-0.2927531694576426,-0.1654163573508978
1660172557787740,-2.349889372091184,1.312275883115944,0.3356984817273769,-2.32360763186311,1.975046134246175,1.533109435309476,0.2962741565380643,-0.2530202705463323,-0.1325104560987727
1660172557803737,-0.5188067444876197,0.1525902189669068,-2.471961547264755,-0.3182752495324354,-0.1819654183253868,-1.249885131548983,0.2751390934868999,-0.238675624818966,-0.1302446616686888
1660172557819733,1.800564583810228,-2.777141985198796,-4.547188525215461,1.710418256098026,-1.961235742288169,-3.127574516574218,0.2862762375394247,-0.2558212341038744,-0.1652643388536744
1660172557835730,0.7629510948347615,-0.2746623941404778,-3.265430685893079,0.6894110994938943,-0.00443199802412414,-2.15684864661325,0.30547487238416,-0.2715465760263728,-0.2075397241591741
1660172557851726,-1.800564583810228,3.265430685893079,-1.251239795529045,-1.475021535992051,3.30683153942133,0.1268521909109579,0.2991899888921748,-0.2451273796951951,-0.2237796958047924
1660172557867723,-1.251239795529045,2.288853284504512,0.09155413138023505,-1.428272022747478,2.819152788220947,1.313839456928862,0.2759636404222586,-0.1961195050740569,-0.2122541626220739
1660172557883719,-0.2746623941404778,-0.1525902189669068,0.03051804379333589,-0.2439404008513923,0.1571749384159004,1.288420445705778,0.2625859410334676,-0.1723088832609621,-0.1914360834009967
1660172557899716,0.2746623941404778,-1.129167620355474,-0.3967345693140487,0.4338567825541563,-0.8801161086905451,0.9446604969006565,0.2641052720870897,-0.1780924126231593,-0.1735714358601453
1660172557915712,1.373311970702616,-1.617456321049758,-0.8850232700083325,1.349820595981388,-1.306073080796064,0.2942821532421862,0.2783746911153741,-0.1955819261390521,-0.1636598946590025
1660172557931708,2.166781109330941,-2.349889372091184,-1.800564583810228,2.15957375840232,-2.03402756924045,-0.4977960007272599,0.3064498459504438,-0.2223027313393443,-0.1652880054388831
1660172557947705,1.617456321049758,-1.922636758983799,-1.922636758983799,1.705810807153576,-1.485487327263798,-0.5927828074289149,0.3373729224748909,-0.2504588505113782,-0.1740126359041325
1660172557963701,0.6408789196611906,-0.213626306553806,-1.190203707942374,0.6923699163983377,-0.09507331475830055,-0.01212527513554018,0.3565583682633062,-0.263103335647555,-0.1788519005646482
1660172557979698,0.03051804379333589,0.3356984817273769,-0.8239871824216607,0.0248467905245406,0.7078544275201332,0.4589029722168349,0.3622961019186893,-0.2582010867454603,-0.1752776789879978
1660172557995694,-0.3967345693140487,0.7019150072480898,-0.8239871824216607,-0.375532732698835,1.214447053934232,0.5667940697738697,0.3594906143812949,-0.2428226748938254,-0.1670721026520722
1660172558011691,-0.3356984817273769,1.068131532768803,-0.7629510948347615,-0.2106986583852226,1.068469948676513,0.307840955207125,0.3548007632526224,-0.2245593388729395,-0.1600750224522242
1660172558027687,0.6408789196611906,-0.8239871824216607,-1.617456321049758,0.5915386315211779,-0.3736771769804472,-0.1938674869953579,0.3578474830377101,-0.219000996699371,-0.1591632347065301
1660172558043426,1.068131532768803,-2.105745021744042,-1.617456321049758,1.105511108553627,-1.57419705692135,-0.3628786089092814,0.3714238809583085,-0.2345839905705853,-0.1636172034737672
1660172558059422,0.8239871824216607,-1.129167620355474,-1.190203707942374,0.955450310386765,-1.298344483916888,-0.04227882667222216,0.3879115723098316,-0.2575643228972912,-0.1668584629584192
1660172558075417,0.9460593575952316,-1.373311970702616,-1.190203707942374,0.8600538045950483,-0.5896772642610284,0.25493856491554,0.4024356052296861,-0.2726684968827146,-0.1651571850524727
1660172558091413,1.068131532768803,-0.6408789196611906,-0.7629510948347615,1.150649422989093,-0.4900330003305787,0.3919113954546893,0.4185212310503593,-0.2813061789994474,-0.1599823853695108
1660172558107408,0.8239871824216607,-0.3967345693140487,-0.3967345693140487,0.9696249601445892,-0.3607956628954033,0.8403410838220444,0.4354834261154287,-0.2881128083052553,-0.150124365535297
1660172558123404,0.09155413138023505,-0.3356984817273769,0.03051804379333589,-0.1027248503870007,0.5548634133119368,1.484810951475365,0.4424186269934894,-0.286560266301923,-0.1315231492529177
1660172558139399,-0.5798428320745188,0.8239871824216607,-0.03051804379333589,-0.3595244362830273,0.6407230870601522,1.007369367441965,0.4387206327001292,-0.2769955742989463,-0.1115857067015791
1660172558155395,1.068131532768803,-1.739528496223329,-2.410925459678083,1.134264155884016,-1.339951317490232,-1.001451356575791,0.4449185504569371,-0.2825894001423869,-0.1115383626146497
1660172558171390,1.800564583810228,-2.777141985198796,-3.753719386587363,1.618445017968764,-2.140179665389339,-2.474749447828043,0.4669402238477594,-0.3104304480054235,-0.1393479690498803
1660172558187386,-1.007095445181903,0.7629510948347615,-2.960250247959038,-0.7534476057261541,0.63963365524098,-1.799806114419692,0.4738602031457002,-0.3224348160866104,-0.1735444135478622
1660172558203381,-3.021286335545938,2.655069810025225,-1.678492408636657,-3.057281570438358,3.249724911208071,-0.2703442066949348,0.4433743697363841,-0.291319947555018,-0.1901056161167792
1660172558219377,-2.594033722438326,2.105745021744042,-0.5798428320745188,-2.613620016274423,2.378613198260472,0.5757121888429726,0.3980071570426819,-0.2462932426792697,-0.1876626722595949
1660172558235372,-0.8850232700083325,0.2746623941404778,-0.03051804379333589,-0.7451249182018361,0.4062327203433793,1.270092213618239,0.3711371975668718,-0.2240144753304389,-0.1728962370399052
1660172558251368,1.007095445181903,-1.129167620355474,0.7019150072480898,0.9531926006496264,-0.4713972748729476,2.062073295158063,0.3728017390264541,-0.2245357917666754,-0.1462389129696948
1660172558267363,2.655069810025225,-1.922636758983799,0.4577706569009479,2.710310474295806,-1.933814660796696,1.588107594093506,0.4021097636260176,-0.2437774872520325,-0.1170374658556822
1660172558283359,3.326466773479751,-3.936827649347606,-1.190203707942374,3.464290208585401,-3.532303172341679,0.1091074546651822,0.4515065690890672,-0.2875064299171395,-0.1034597454656127
1660172558299354,1.251239795529045,-1.983672846570471,-1.617456321049758,1.139880628457119,-1.560532296897765,-0.2006012046395673,0.4883399357854074,-0.3282491136710551,-0.1041916954654078
1660172558315350,-2.471961547264755,2.04470893415737,-0.7019150072480898,-2.443078093823072,2.407395762427798,0.3873107685173042,0.4779143560624798,-0.3214742059468148,-0.1026980189543859
1660172558331345,-3.631647211413792,3.20439459830618,-1.251239795529045,-3.33051006160417,3.034204223013635,0.01812930026650083,0.4317256508190618,-0.2779414060632833,-0.09945449840411545
1660172558347341,-1.800564583810228,0.4577706569009479,-2.105745021744042,-2.082744162918335,1.479704525328431,-0.6045067394450381,0.3884196170228818,-0.2418301360765468,-0.1041455179175438
1660172558363098,-1.068131532768803,1.068131532768803,-1.373311970702616,-0.9930716701021274,0.9674893697261567,-0.4099852532091348,0.3638130903587181,-0.2222525849161101,-0.1122614538587771
1660172558379092,0.5188067444876197,-0.9460593575952316,-1.922636758983799,0.8656568262548302,-0.733541155856743,-0.4503882100765715,0.3627937716079397,-0.2203809992051548,-0.1191444415650628
1660172558395087,3.021286335545938,-3.936827649347606,-2.105745021744042,2.711366024682341,-3.309555669768452,-0.8862774699181691,0.3914099544154371,-0.2527257738101564,-0.1298377670050207
1660172558411081,1.373311970702616,-2.532997634851654,-1.678492408636657,1.45473273512269,-2.355963748474379,-0.4612952834998449,0.4247387444938774,-0.298049929156099,-0.1406183490323648
1660172558427076,-1.556420233463086,0.1525902189669068,-0.8239871824216607,-1.294292525264339,0.4805293405430836,0.5703831899993722,0.4260222661727442,-0.3130534044195494,-0.1397456457803686
1660172558443071,-1.983672846570471,1.129167620355474,-0.03051804379333589,-2.103405373325033,1.149701274348787,1.034597010675333,0.3988406829840292,-0.3000115595004144,-0.126905804174971
1660172558459065,-1.190203707942374,-0.2746623941404778,-0.7019150072480898,-1.280363509040943,0.788723197109623,0.8327574617705905,0.3717705319251014,-0.2845041637287472,-0.1119669683954036
1660172558475060,0.6408789196611906,0.1525902189669068,-0.8239871824216607,0.9095040918030384,-0.3840438287697359,0.2022950771055405,0.3688036565871982,-0.2812667287820281,-0.1036865480843945
1660172558491054,3.936827649347606,-4.058899824521177,-2.105745021744042,3.980660198982711,-3.310175061492426,-0.6950676184773767,0.4079249709134841,-0.3108204799041254,-0.1076287284153692
1660172558507049,4.303044174868319,-4.180971999694748,-2.349889372091184,4.028376109309598,-3.795360080492334,-1.120877210043921,0.4719972613798226,-0.3676647610400035,-0.1221562870435396
1660172558523043,-0.03051804379333589,-0.1525902189669068,-2.04470893415737,0.3016624588010126,-0.01828784959843277,-0.7469242919228423,0.5066375699247074,-0.3981739444807296,-0.1370986990592737
1660172558539038,-2.716105897611897,2.532997634851654,-1.251239795529045,-2.635565614324453,2.791177043090731,-0.06690113631008432,0.4879663446805199,-0.3759908309327912,-0.1436093024851371
1660172558555032,-2.838178072785468,2.227817196917613,-0.6408789196611906,-3.133942554403854,2.690333421929712,0.7323775848896859,0.4418102793306934,-0.3321387472126276,-0.1382854908965003
1660172558571027,-2.594033722438326,1.373311970702616,-0.1525902189669068,-2.270489299432671,1.857514661232087,1.112769641143616,0.3985748245000013,-0.2957559625473333,-0.1235243130882339
1660172558587021,0.7019150072480898,-0.213626306553806,-1.007095445181903,0.7039406100093708,-0.5200637970683174,0.1154135021731255,0.3860424349846149,-0.2850563556340231,-0.1136988479416999
1660172558603016,4.058899824521177,-4.60822461280236,-2.716105897611897,3.99579847883468,-3.546070926550433,-1.236270739043528,0.4236403476953673,-0.3175854334229731,-0.1226657058366632
1660172558619011,3.20439459830618,-2.655069810025225,-2.166781109330941,3.256004083251407,-2.816867891973695,-1.037653800416379,0.481654768192056,-0.3684889439711661,-0.1408571021523424
1660172558635005,-0.5188067444876197,0.1525902189669068,-1.312275883115944,-0.3744282572380239,0.5950530625058201,0.005059065457480916,0.504707374800163,-0.3862634626069091,-0.1491178600320136
1660172558651000,-1.800564583810228,1.129167620355474,-1.007095445181903,-1.883526675104728,1.454282210347276,0.2226766781611175,0.486643735341421,-0.3698687804240843,-0.1472959740830648
1660172558666994,-1.007095445181903,-0.5188067444876197,-1.312275883115944,-0.9099486275628554,-0.1519425251769624,0.06239004663526022,0.4642959329200804,-0.3594500629427218,-0.1450154402846938
1660172558682769,-0.5798428320745188,-0.5188067444876197,-0.7019150072480898,-0.5372673742519779,-0.4031339841706023,0.4086885953887007,0.4527182049055617,-0.3638906750175023,-0.1412468111485021
1660172558698763,-0.6408789196611906,0.213626306553806,-0.7019150072480898,-0.698479828542945,0.8714406648362195,0.7296168681896052,0.4428322272832023,-0.3601442215721774,-0.1321403674398756
1660172558714757,0.3967345693140487,1.129167620355474,-0.5798428320745188,0.6132792778906616,1.048649892283025,0.5691996299781259,0.4421506228779841,-0.3447834971152234,-0.1217498354545338
1660172558730750,2.410925459678083,-0.4577706569009479,-0.8850232700083325,2.284272866431882,0.1046737881656316,0.4335579951734576,0.4653310400325644,-0.3355569076716342,-0.1137277744533211
1660172558746744,1.983672846570471,-0.5188067444876197,-0.8850232700083325,2.048128576380506,-0.1482644426379924,0.4247842664863976,0.4999902515750635,-0.3359056329074131,-0.1068610363600423
1660172558762737,0.9460593575952316,-0.213626306553806,-1.373311970702616,1.074529039689653,-0.2198248006745309,-0.209187700670648,0.5249715125036248,-0.3388503468539133,-0.1051362638335163
1660172558778731,1.434348058289515,-1.8616006713969,-2.838178072785468,1.392223130036351,-1.165237976705197,-1.453057404159564,0.5447055298614328,-0.3499308490729511,-0.118434224672158
1660172558794725,1.8616006713969,-1.495384145876187,-3.143358510719509,1.873184722704291,-1.458385541265995,-1.962599245359695,0.570828792683358,-0.3709198372167207,-0.1457594778683121
1660172558810718,0.7019150072480898,-0.3356984817273769,-2.227817196917613,0.8436705117097258,0.1236809134559222,-0.8761148890318533,0.5925636345586701,-0.3815974742392013,-0.1684691909434445
1660172558826712,-0.7629510948347615,1.739528496223329,-0.1525902189669068,-0.8436715369024633,1.983962393421049,0.9935190553011113,0.5925636263571282,-0.3647363277841855,-0.1675299576132904
1660172558842705,-1.739528496223329,1.800564583810228,0.5188067444876197,-1.611974681887411,2.156707520418188,1.983101675745483,0.5729184566068092,-0.3316109684734716,-0.1437169917649176
1660172558858699,-1.190203707942374,0.3356984817273769,0.1525902189669068,-1.213652652030172,0.624823827040289,1.191561219668783,0.5503134379354685,-0.3093587176938038,-0.1183196886016035
1660172558874693,-0.3356984817273769,-1.434348058289515,-1.8616006713969,-0.259825787735124,-1.128369316545074,-0.4186492756459753,0.5385256104173461,-0.3133870816098421,-0.112136393049421
1660172558890686,0.6408789196611906,-2.166781109330941,-2.471961547264755,0.6478599914755744,-1.807923319024294,-1.240110925521309,0.5416298840472697,-0.336877422694397,-0.1254064746587593
1660172558906680,0.9460593575952316,-1.617456321049758,-2.288853284504512,1.001085667639954,-1.337994892239088,-1.093360846691728,0.5548214493201939,-0.3620447683845041,-0.1440742488364636
1660172558922673,0.3967345693140487,-0.4577706569009479,-1.8616006713969,0.449069150305325,-0.2006500597665941,-0.5107703542667744,0.5664226878637562,-0.3743539280005495,-0.1569072984441316
1660172558938667,-0.5188067444876197,0.4577706569009479,-0.8239871824216607,-0.5551752882532283,0.954165114782162,0.4422829268905702,0.565573838760173,-0.368325807560425,-0.1574551978631412
1660172558954661,-1.007095445181903,0.9460593575952316,-0.03051804379333589,-0.8576798043274382,1.032345212107372,1.173241870196031,0.5542709980195276,-0.3524337249453087,-0.1445309994864484
1660172558970654,-0.09155413138023505,-0.5188067444876197,-0.5188067444876197,-0.1481310021904821,-0.08252887990118732,0.8257334931448657,0.5462245115673843,-0.3448351942876592,-0.1285391965797213
1660172558986648,0.6408789196611906,-1.373311970702616,-1.373311970702616,0.7096434286193082,-0.9889552829642658,-0.1539941193671511,0.5507166109788149,-0.3534070675905829,-0.1231652815894995
1660172559002411,1.068131532768803,-1.190203707942374,-2.105745021744042,1.108126339608015,-1.085000921775514,-0.794683765924223,0.5652587691246335,-0.3699987172285011,-0.1307547046718305
1660172559018403,0.7629510948347615,-1.312275883115944,-2.166781109330941,0.8210790842008356,-0.7704463935623972,-0.9434359141104002,0.5806924125151043,-0.3848422957512044,-0.1446596621121075
1660172559034396,-0.3356984817273769,0.03051804379333589,-2.04470893415737,-0.3606760186091235,0.1503054611798577,-0.7431595737777291,0.584375637039838,-0.3898034232102647,-0.1581524260152125
1660172559050388,-1.678492408636657,0.6408789196611906,-1.617456321049758,-1.589391092213465,1.146843118826773,-0.3336833169356546,0.5687751001532573,-0.3794262345702117,-0.1667671691409196
1660172559066381,-1.922636758983799,0.7629510948347615,-1.312275883115944,-1.902460562041672,0.8863042229689311,-0.09621538068082974,0.5408402869192162,-0.3631610558358461,-0.1702063587218515
1660172559082374,-2.655069810025225,0.213626306553806,-1.251239795529045,-2.57248917681493,0.636391557032748,0.06825568830234809,0.5050406890083633,-0.3509794895958326,-0.1704300362608793
1660172559098366,-4.486152437628789,2.288853284504512,-0.7019150072480898,-4.596230876398116,2.609738347423868,0.5487559578142743,0.4476909285826589,-0.3250104503601797,-0.1654939430919463
1660172559114359,-5.401693751430457,3.936827649347606,-0.7629510948347615,-5.176374776667435,4.242841868566193,0.5183793409803469,0.3695100833581345,-0.2701898086322592,-0.1569568607015894
1660172559130352,-1.800564583810228,1.190203707942374,-2.227817196917613,-1.851625265811108,1.396170006865784,-0.9761660799116244,0.3132860830183062,-0.2250777136288034,-0.1606191546130396
1660172559146344,2.471961547264755,-3.875791561760934,-3.753719386587363,2.4429334319401,-3.394617218496542,-2.510162584112292,0.3180165483473381,-0.2410652913218495,-0.1885097839252309
1660172559162337,2.960250247959038,-4.42511635004189,-3.509575036240221,3.128081476332875,-4.209963155011573,-2.115504455409871,0.3625846676135219,-0.3019019343099144,-0.2255151202414082
1660172559178330,-0.09155413138023505,-1.434348058289515,-1.678492408636657,-0.125743240338368,-1.072946772410074,-0.5759663071930131,0.386603373501478,-0.3441652137292876,-0.2470468863422313
1660172559194322,-3.692683299000464,1.434348058289515,-1.068131532768803,-3.715726667758017,1.619701251975245,0.2667313942158515,0.3558716142367069,-0.3397911778927662,-0.2495207656460486
1660172559210315,-4.242008087281647,1.312275883115944,-1.251239795529045,-4.031535850118215,1.874008117719531,0.1469236485752436,0.2938935140936971,-0.311841502935208,-0.2462115253037198
1660172559226307,-0.6408789196611906,0.09155413138023505,-1.495384145876187,-0.8163453753758435,0.1820875938049979,-0.4769810091883723,0.2551104642897446,-0.2953927372430118,-0.2488519841886249
1660172559242300,2.288853284504512,-2.166781109330941,-2.410925459678083,2.500483306340104,-1.832132463940741,-0.951530154125852,0.2685835677374587,-0.3085930962040977,-0.2602800734951387
1660172559258293,2.777141985198796,-2.166781109330941,-1.922636758983799,2.729953250468859,-1.665447428330543,-0.6426730242014138,0.3104270601919304,-0.336573735342268,-0.2730336989217568
1660172559274285,0.8850232700083325,0.213626306553806,-1.373311970702616,0.8827796876251677,0.3197743943153056,-0.2765096569864238,0.3393289236966826,-0.34733911961439,-0.2803871603712595
1660172559290278,0.09155413138023505,0.2746623941404778,-2.105745021744042,0.2461856086815038,0.6444017173057528,-0.6741137572177329,0.348360646067136,-0.3396257107214215,-0.2879921476848927
1660172559306271,1.007095445181903,-1.251239795529045,-2.227817196917613,0.969370952838067,-0.8328574068733303,-0.9517817679436597,0.3580850985592925,-0.3411333562379621,-0.3009993118861839
1660172559322113,0.4577706569009479,-0.7019150072480898,-1.434348058289515,0.4532768162206495,-0.5800244634817924,-0.369653801599043,0.3694662807117623,-0.3524364112008032,-0.3115707964425255
1660172559338104,-1.007095445181903,0.7019150072480898,-1.373311970702616,-0.8762080916820105,1.241549315745365,0.2129074646504176,0.3660828305080714,-0.3471442123826946,-0.3128247671381145
1660172559354096,-0.09155413138023505,0.5798428320745188,-1.007095445181903,-0.1229205246141908,0.7439482403628641,-0.01579770364853005,0.3580898015777018,-0.3312602319338287,-0.3112478890500994
1660172559370088,1.678492408636657,-1.800564583810228,-1.739528496223329,1.778027538702253,-1.592169122083571,-0.3691948319807183,0.3713306576904062,-0.3380459989875944,-0.3143278293351334
1660172559386079,1.495384145876187,-2.166781109330941,-1.312275883115944,1.447222055573651,-1.459536282459424,0.07627760791665844,0.3971326544446135,-0.3624596422239383,-0.3166711671276459
1660172559402071,-0.213626306553806,0.3967345693140487,-0.4577706569009479,-0.1587756684260639,0.2806836224706053,0.577165179193547,0.4074402255417942,-0.3718904635038489,-0.3114436248307643
1660172559418063,-0.2746623941404778,-0.8850232700083325,-1.251239795529045,-0.102943027161045,-0.3817289358654239,0.2119550639098219,0.4053464759770973,-0.3726988260110074,-0.3051306628859373
1660172559434054,0.1525902189669068,-1.800564583810228,-1.312275883115944,0.0003981188631141108,-1.457806634729156,-0.1333370192074925,0.4045261167107139,-0.3874151105757641,-0.3045017185283187
1660172559450046,-2.04470893415737,0.09155413138023505,-1.312275883115944,-1.956767723447352,0.3852433992862845,0.01278474510450528,0.38887515987404,-0.395995616459307,-0.3054661367211426
1660172559466038,-3.082322423132609,1.556420233463086,-1.617456321049758,-2.949235266647897,1.821542721953296,-0.4373148778591205,0.349627135953278,-0.3783413274893904,-0.3088623777831795
1660172559482030,-1.068131532768803,0.03051804379333589,-2.594033722438326,-1.088677056315021,0.2987377272263359,-1.226973982397147,0.3173238373695746,-0.3613790838959533,-0.3221766886652296
1660172559498021,0.1525902189669068,-0.7629510948347615,-2.04470893415737,0.1081030608259655,-0.2362508719103878,-0.8047120968678216,0.3094792454056622,-0.3608791890534257,-0.3384301772993494
1660172559514013,-0.7019150072480898,1.190203707942374,-0.7629510948347615,-0.5770338378968621,1.289060746267686,0.4440932162527235,0.305727799189095,-0.3524567100585673,-0.3413151283442701
1660172559530005,0.03051804379333589,-0.09155413138023505,-0.6408789196611906,0.1173493945408271,0.3054128812912976,0.7570121842240448,0.3020503236422467,-0.3397009210380955,-0.331706285140456
1660172559545996,2.105745021744042,-3.143358510719509,-1.129167620355474,2.009846068094254,-2.88585228274494,-0.0252372021532169,0.3190678873433274,-0.3603444362497246,-0.3258520852838894
1660172559561988,1.556420233463086,-3.570611123826893,-2.105745021744042,1.661383205541649,-3.093883304885638,-0.6568209142406527,0.3484377215324146,-0.4081823209507692,-0.3313085502150404
1660172559577980,-0.4577706569009479,-0.7629510948347615,-1.556420233463086,-0.4197501125561744,-0.5938541083471606,-0.4187636338338505,0.3583707862762984,-0.4376842202566316,-0.3399132265996364
1660172559593971,-1.373311970702616,0.5798428320745188,-0.7629510948347615,-1.280421437766557,0.7757055491613313,0.4971641910692656,0.3447694138737165,-0.4362294087301182,-0.339286022141753
1660172559609963,-0.6408789196611906,0.3967345693140487,-0.2746623941404778,-0.7656731315836811,1.056962260294369,1.203381294111657,0.3284006573189146,-0.4215680662544726,-0.3256816582603057
1660172559625955,-0.7629510948347615,1.190203707942374,0.3356984817273769,-0.6119719709407836,1.361598867856856,1.286009596344341,0.3173794964987189,-0.4022195772292628,-0.3057665311366576
1660172559641784,-2.899214160372367,2.655069810025225,1.068131532768803,-2.713031574349874,2.479989030481268,2.540686828225589,0.2907794681363936,-0.3714868740425578,-0.2751529597400982
1660172559657776,-6.622415503166167,4.730296787975931,4.303044174868319,-6.994315923043698,6.043143760459509,5.648290326405601,0.213120688157245,-0.3033018117150316,-0.2096411425030487
1660172559673767,-8.453498130769731,8.392462043183059,5.157549401083315,-8.078731268434639,7.897210770462545,6.186786848077451,0.09253631062541832,-0.1917789754676551,-0.1149605251071842
1660172559689758,-2.166781109330941,1.8616006713969,-0.09155413138023505,-2.073326066489378,2.216748838924889,1.31932549998554,0.01131985194602619,-0.1108672985925557,-0.0549116263226803
1660172559705749,4.730296787975931,-5.279621576256886,-4.791332875562603,4.410637817228093,-4.437883246477986,-3.469840263172252,0.03001834595193591,-0.1286363738529805,-0.07211574442817401
1660172559721740,3.509575036240221,-2.655069810025225,-3.814755474174035,3.783976991195285,-2.71572279868711,-2.652428028156974,0.09557526441932293,-0.1858652222143012,-0.1210938907588078
1660172559737732,-0.7019150072480898,2.532997634851654,-0.5798428320745188,-0.5383999964699675,2.657284431605793,0.7190180007427269,0.1215398803771255,-0.1863327291509518,-0.1365611709781218
1660172559753723,-1.617456321049758,2.471961547264755,-0.03051804379333589,-1.927353261186483,3.295477237031229,1.30070255192914,0.1018138543158739,-0.1387106358018556,-0.1204034065567468
1660172559769714,-0.7019150072480898,0.5188067444876197,-1.556420233463086,-0.4047007384469429,0.517892310226641,-0.4031970966074486,0.08315742231880646,-0.1082036794237926,-0.1132233629141733
1660172559785705,0.6408789196611906,-0.9460593575952316,-2.349889372091184,0.6725718682093041,-0.8013763121927151,-0.9574385831952783,0.08530039135690536,-0.1104715514395212,-0.1241084483525951
1660172559801696,0.1525902189669068,-0.5798428320745188,-1.312275883115944,0.01515381805569885,0.2761032887614466,-0.08306594772050457,0.09080219684702538,-0.1146737356269714,-0.1324324845999214
1660172559817688,-0.9460593575952316,1.312275883115944,-0.8239871824216607,-0.8020935107001099,1.09643682185354,0.3442128454087296,0.08450667930587009,-0.1036934147420515,-0.1303433094184156
1660172559833679,-0.3356984817273769,-0.7629510948347615,-1.068131532768803,-0.1461233118876664,-0.2598452424682328,0.3871294762367713,0.07692094472516789,-0.09700068210696904,-0.1244925708452516
1660172559849670,1.190203707942374,-2.166781109330941,-0.1525902189669068,0.8776147308549506,-1.726171819346221,0.9756405109425371,0.08277287607690616,-0.1128888186014847,-0.1135904109478171
1660172559865661,0.6408789196611906,-1.739528496223329,0.09155413138023505,0.9414345029234876,-1.540751735950739,1.406013501545784,0.09732526994713367,-0.1390242070438603,-0.09453717884791052
1660172559881652,0.213626306553806,-0.9460593575952316,0.1525902189669068,0.2827071695914211,-0.7622692953274517,1.41968816393951,0.1071184033272529,-0.1574483752940859,-0.07193156552402816
1660172559897644,-1.312275883115944,0.5798428320745188,0.7629510948347615,-1.508158608927547,1.118246138202585,2.036651228506747,0.09731479181256392,-0.1546005605510848,-0.0442808503844581
1660172559913635,-3.509575036240221,3.38750286106665,1.068131532768803,-3.337011315642926,3.725687279386127,2.385936974072891,0.05855343241600013,-0.1158490932103751,-0.008900144763820998
1660172559929626,-2.105745021744042,2.899214160372367,-0.3967345693140487,-1.976428909698674,2.88406412043968,0.7197008244893098,0.01604591061326732,-0.06297108201176865,0.01594495762467661
1660172559945617,1.007095445181903,-1.129167620355474,-2.838178072785468,0.9168721685904517,-0.5328470772715489,-1.37826381619751,0.007569456684401541,-0.0441613456664236,0.01067645369101101
1660172559961425,0.3356984817273769,-0.6408789196611906,-2.410925459678083,0.3006545570247576,-0.252824829596706,-1.239066684507302,0.01730967048932322,-0.05044672092136964,-0.01026219031462748
1660172559977416,-2.777141985198796,2.716105897611897,-0.9460593575952316,-2.540070450998047,2.739680839207615,0.3057773807755204,-0.0006056566624630944,-0.03055187284448237,-0.01772850474448174
1660172559993407,-3.143358510719509,2.349889372091184,-0.09155413138023505,-3.168006888828742,2.809402186882852,1.213064611860083,-0.0462702753810774,0.01384079136424137,-0.005577768803396905
1660172560009398,-2.166781109330941,0.9460593575952316,0.213626306553806,-2.289382191919998,1.323558204075639,1.511676312625267,-0.08992938802706732,0.0469044744919093,0.0162201585924859
1660172560025388,-1.556420233463086,0.8239871824216607,0.213626306553806,-1.350705427566543,1.157574233130479,1.425756460744141,-0.1190500889829597,0.06675353398955824,0.03971962077944116
1660172560041379,0.8850232700083325,0.03051804379333589,-0.7019150072480898,0.9414101958519435,0.04583404204992853,0.5744837204724512,-0.1223244508366765,0.0763808001910015,0.0557215422291739
1660172560057370,3.082322423132609,-2.410925459678083,-1.556420233463086,2.992058963324311,-1.716203448543221,-0.2250013710484855,-0.09085669756326642,0.06301784493905517,0.05851740102456562
1660172560073361,2.04470893415737,-1.068131532768803,-1.312275883115944,2.088422487713628,-0.8843019930689813,-0.1206754476165988,-0.05021284595496291,0.04221380140615755,0.05575198647524495
1660172560089351,0.4577706569009479,0.213626306553806,-1.312275883115944,0.6580252734309764,0.3589983788208916,0.01528804506818843,-0.02824126386580607,0.03801137249217284,0.05490888725485767
1660172560105342,1.434348058289515,-1.617456321049758,-1.678492408636657,1.30090297406391,-1.070945546710531,-0.45276539527599,-0.01256983788584698,0.03231579514905573,0.05140906845319525
1660172560121333,1.495384145876187,-2.227817196917613,-1.922636758983799,1.586633858699244,-2.040063379681166,-0.6242935032041483,0.01053045677625826,0.007427723737922155,0.04279259726535415
1660172560137323,0.213626306553806,-0.7629510948347615,-1.617456321049758,0.2567399614687532,-0.3899794610030805,-0.3296055013351579,0.02527744733760224,-0.01201261898755181,0.0351614052290397
1660172560153314,0.1525902189669068,0.03051804379333589,-1.922636758983799,0.1968427277897307,0.3121961067050908,-0.7134043568472938,0.02890610885167011,-0.01263488582193573,0.02681732636358009
1660172560169305,1.739528496223329,-1.312275883115944,-2.838178072785468,1.795019435915992,-1.082149139057876,-1.536939868848422,0.04484100616131589,-0.01879451008075801,0.00881457255801436
1660172560185296,1.678492408636657,-1.373311970702616,-2.471961547264755,1.614453113498199,-0.8160582909387444,-1.139357553121732,0.07211678655662941,-0.03398016952073098,-0.01259580681774687
1660172560201286,-1.434348058289515,1.739528496223329,-0.6408789196611906,-1.284690502066023,1.822224408576802,0.4958813993494984,0.07475488744808682,-0.02593084057962652,-0.01774361604792474
1660172560217277,-4.058899824521177,3.021286335545938,0.213626306553806,-4.001491829359802,3.304784282522411,1.597159898021786,0.03246542879668023,0.01508522894916717,-0.0009992856689544603
1660172560233268,-3.570611123826893,1.190203707942374,-0.09155413138023505,-3.748969895139895,1.858763102933099,1.156712361298427,-0.02953826499931735,0.05639360803281124,0.02103169240560725
1660172560249259,-0.5188067444876197,-1.190203707942374,-1.373311970702616,-0.1952873196057299,-1.342207847469054,-0.1765414269518487,-0.06109232271728235,0.0605260500765236,0.02887305988037988
1660172560265249,3.814755474174035,-4.242008087281647,-2.349889372091184,3.724296024855947,-3.665927059950073,-0.9773150678840642,-0.03286025307528061,0.02046097081717059,0.01964220792169257
1660172560281097,4.42511635004189,-3.143358510719509,-1.739528496223329,4.309838674909755,-2.753189897951213,-0.5214530241316951,0.03141282452284501,-0.0308919648460397,0.007652063185566497
1660172560297087,1.678492408636657,-0.09155413138023505,-0.8850232700083325,1.999327757391278,-0.01368374065028721,0.3533337895704206,0.08188615598125326,-0.0530269539548517,0.006307109309076301
1660172560313077,0.03051804379333589,0.7629510948347615,-0.8850232700083325,-0.06074513468343778,1.165255541381384,0.4717517630146391,0.09739481696291598,-0.04381437954900293,0.01290779372975678
1660172560329066,-0.3967345693140487,-0.09155413138023505,-1.434348058289515,-0.5341771384452625,0.4087252371380597,-0.2591921354832972,0.09263543877788638,-0.03122253332084738,0.01460827075000751
1660172560345056,0.3967345693140487,-1.068131532768803,-2.594033722438326,0.7736470571267299,-1.054416026724131,-1.255130262582376,0.09455119812733812,-0.03638805963753595,0.002493691565482131
1660172560361046,3.38750286106665,-3.021286335545938,-3.20439459830618,3.191200795410928,-2.560053822882209,-1.961256673133027,0.1262699809476394,-0.06530381843438668,-0.02323740392024109
1660172560377036,4.119935912108076,-3.326466773479751,-3.143358510719509,4.135871240664245,-2.885804884028475,-1.894500202335283,0.1848865572362408,-0.1088706880896722,-0.05408345892398757
1660172560393026,2.288853284504512,-1.739528496223329,-2.288853284504512,2.510889030851176,-1.72056393393417,-0.9643288683905823,0.2380606394083641,-0.1457216386333733,-0.07695409148979448
1660172560409015,0.4577706569009479,-1.129167620355474,-1.007095445181903,0.3351798766558481,-0.5483933017136895,0.2170035980165827,0.2608291906684204,-0.1638732965185562,-0.08293269365278648
1660172560425005,-0.7629510948347615,-0.3356984817273769,-0.2746623941404778,-0.7010954373836428,-0.1466398895924164,0.9804386227334446,0.257901866182598,-0.1694335620490051,-0.07335315588678626
1660172560440995,-0.7019150072480898,-0.5798428320745188,-0.1525902189669068,-0.5840600778358972,-0.2678829587112532,1.209423791363794,0.2476206220608417,-0.1727497448354344,-0.05583425657400835
1660172560456985,-0.03051804379333589,-1.007095445181903,-0.09155413138023505,-0.09613501899686876,-0.6266819559102538,1.052528622890027,0.2421790612861796,-0.1799062641524065,-0.03773863725997779
1660172560472974,-0.7019150072480898,-0.5188067444876197,-0.5798428320745188,-0.591734228562979,-0.3035888714532247,0.766540865720819,0.2366761073057008,-0.1873484307713143,-0.02318608135109102
1660172560488964,-2.532997634851654,0.9460593575952316,-0.6408789196611906,-2.540426665115335,1.376242965471177,0.6644275407475793,0.2116188201562743,-0.1787671980191707,-0.01173833409934383
1660172560504954,-4.547188525215461,3.143358510719509,-0.3356984817273769,-4.503070533109431,3.382045419887414,0.8001022796560697,0.1552708425704762,-0.140700890936302,-2.209553611464375e-05
1660172560520944,-4.974441138323073,4.119935912108076,-0.3967345693140487,-4.876674805714566,4.380258784569796,1.009180720746463,0.08023287985988418,-0.07860245730064429,0.01445216846710562
1660172560536934,-2.899214160372367,3.326466773479751,-0.4577706569009479,-2.987225126547648,3.83954171201129,0.7914372910813834,0.01732168040178647,-0.0128440533279956,0.02885711256172839
1660172560552923,1.007095445181903,1.190203707942374,-1.495384145876187,1.133284419377443,1.278429679790982,-0.3603420422153272,0.002490154744424834,0.02809971780642257,0.03230587455265684
1660172560568913,5.035477225909744,-2.532997634851654,-3.143358510719509,5.14049442086591,-2.122958126804591,-1.664121217545186,0.05268038546637167,0.0213434902303137,0.01611016847457273
1660172560584903,5.157549401083315,-3.143358510719509,-2.838178072785468,4.976910226248769,-2.774736285198156,-1.717600049295862,0.1336196226432891,-0.01783806506570827,-0.01094360166015566
1660172560600769,0.3967345693140487,-0.09155413138023505,-1.922636758983799,0.6379746458800369,0.1445957924265926,-0.6422961111312886,0.1785387016203196,-0.03887918900788077,-0.02982277094357286
1660172560616758,-2.838178072785468,2.166781109330941,-1.190203707942374,-2.863439599558433,2.481765703195484,0.1814559528222975,0.1607349819908924,-0.01786829704290416,-0.03350949221004479
1660172560632747,-2.716105897611897,1.251239795529045,-1.190203707942374,-2.730433097308214,1.620307550892188,-0.0285300968981412,0.1159840004159592,0.01494828898979721,-0.03228608536265154
1660172560648737,-1.129167620355474,-0.2746623941404778,-1.8616006713969,-1.030382391868248,-0.02053458087181148,-0.5895221044578915,0.08589747650254752,0.02774647274996022,-0.0372305029734998
1660172560664726,0.4577706569009479,-0.7629510948347615,-1.800564583810228,0.4766498951141691,-0.4037732750280631,-0.4019217441667633,0.08146761652851488,0.02435200990276123,-0.04516205376249704
1660172560680715,2.227817196917613,-1.434348058289515,-0.8850232700083325,2.216179480755777,-1.109928031772163,0.2224436838296445,0.1030102515354744,0.01224239944835942,-0.04659787824519399
1660172560696704,3.265430685893079,-2.899214160372367,-0.8850232700083325,3.434913671176041,-2.693784992465058,0.4541399592945438,0.148218996750929,-0.01818730474553835,-0.04118520910020048
1660172560712694,2.349889372091184,-2.960250247959038,-0.6408789196611906,2.205336569604184,-2.521304690173157,0.6687852515708819,0.1933409986771708,-0.05990802220664407,-0.03220180741327708
1660172560728683,-0.7629510948347615,-0.7019150072480898,-0.4577706569009479,-0.6057911001592147,-0.3390364201211732,0.7727702104249112,0.2061373624327305,-0.08279075108899871,-0.02066936371731073
1660172560744672,-1.922636758983799,0.5188067444876197,-1.495384145876187,-1.87846554467396,0.5494595371643061,-0.28212339320408,0.1862633092740651,-0.08110736615265364,-0.01674418917954408
1660172560760662,-1.007095445181903,-0.7019150072480898,-3.082322423132609,-1.037097884017927,-0.07457382691275249,-1.696113980543188,0.1629388018445301,-0.07730828047064121,-0.03257008816952223
1660172560776651,0.1525902189669068,0.09155413138023505,-2.777141985198796,0.1956522557148892,0.3229437007064445,-1.570082495649493,0.1562072368181057,-0.07532132148029168,-0.05869965997906367
1660172560792640,1.373311970702616,0.7019150072480898,-1.373311970702616,1.479911974736671,0.8526534396322057,-0.1449806089000024,0.1696117506617182,-0.06591654435758247,-0.07242016481545963
1660172560808630,2.777141985198796,-0.7019150072480898,-0.3356984817273769,2.758029969016346,-0.2059467597741668,1.020985315133349,0.2035152862117424,-0.06074289091871816,-0.06541212716559286
1660172560824619,2.532997634851654,-1.373311970702616,0.03051804379333589,2.551683977898759,-1.066513710437912,1.265409851555336,0.2459929977870632,-0.0709225746804148,-0.04712096583208338
1660172560840608,0.7019150072480898,-0.7019150072480898,-0.4577706569009479,0.7844224935727393,-0.5383182986119027,0.751691946695903,0.2726818495588352,-0.08376123075281332,-0.03098415144607347
1660172560856598,-0.6408789196611906,-0.5798428320745188,-1.373311970702616,-0.6104437230636643,-0.0882302094640417,0.007416414050476022,0.2740736797229079,-0.08877361881742088,-0.02491128456010244
1660172560872587,-1.190203707942374,-0.09155413138023505,-1.617456321049758,-1.184491770728547,0.09032213233748382,-0.4177927735070888,0.2597141957725702,-0.08875688343443335,-0.02819429543575534
1660172560888576,-1.922636758983799,0.7629510948347615,-1.434348058289515,-1.855525016770772,1.186207156644861,-0.1780258813687694,0.2353940614725756,-0.07854464912257458,-0.03296084467476221
1660172560904565,-1.678492408636657,2.04470893415737,-0.5798428320745188,-1.671197428377998,2.208579252196802,0.7054582464231756,0.2071802819113854,-0.05138635785184129,-0.02874138575432696
1660172560920440,0.8239871824216607,-0.03051804379333589,-0.3967345693140487,0.9020121465380129,0.5303868729940946,1.023603019931026,0.2010267996566656,-0.02947462885031411,-0.01490889562349334
1660172560936429,3.936827649347606,-3.143358510719509,-0.9460593575952316,3.932852371364028,-3.126416916772413,-0.06488957254406061,0.2397057157998819,-0.05024286920054066,-0.007239188044397617
1660172560952418,3.570611123826893,-4.364080262455218,-2.471961547264755,3.660247900217532,-3.946288271813442,-0.7559227384106201,0.3004505179725344,-0.1068245107092275,-0.01380568653203506
1660172560968407,0.3967345693140487,-1.495384145876187,-1.068131532768803,0.3034695311011462,-0.8086939409628096,0.02811107038597627,0.3321602574230837,-0.1448643684114375,-0.01962817987623221
1660172560984396,-2.532997634851654,1.922636758983799,-0.5798428320745188,-2.292061885514343,1.453264453078447,0.4361196653917706,0.3162515185877782,-0.1397078043145124,-0.01591433399001024
1660172561000384,-2.410925459678083,0.3356984817273769,-1.739528496223329,-2.49926041783467,1.31826183370559,0.002177415098940483,0.2779209401609861,-0.1175355940202401,-0.01240795734608455
1660172561016373,-1.068131532768803,0.7629510948347615,-1.312275883115944,-1.146043926941867,1.040786040186901,-0.3503057649584969,0.2487585054027738,-0.09866321102910018,-0.015192984144961
1660172561032362,1.068131532768803,-0.3356984817273769,-2.410925459678083,1.393031772380741,-0.548272582914733,-1.164141652515839,0.2507344081662848,-0.09472310337092284,-0.02730856348475569
1660172561048351,3.143358510719509,-3.38750286106665,-2.899214160372367,3.00112314618653,-2.595559753135284,-1.47722140139882,0.2858876475148229,-0.119873762059323,-0.04843946791607297
1660172561064340,1.251239795529045,-0.8850232700083325,-1.068131532768803,1.174761199463198,-0.5503703148685929,0.2261754124822438,0.3192947222800208,-0.145041202603354,-0.05844783582740558
1660172561080329,-1.068131532768803,2.166781109330941,0.213626306553806,-0.7880659617117803,2.189599395715057,1.241088378649457,0.3223882841820321,-0.1319273699565823,-0.04670972549835196
1660172561096317,1.068131532768803,-0.7629510948347615,-1.800564583810228,1.028584116534187,-0.4417905055507058,-0.3028358871520723,0.3243124294206113,-0.1179448988352675,-0.03920370556637288
1660172561112306,2.594033722438326,-3.814755474174035,-2.105745021744042,2.501765718561701,-3.065400384048037,-0.8682939852851492,0.3525552281013785,-0.1460024259520574,-0.04857274454587066
1660172561128295,-0.7019150072480898,0.5798428320745188,-0.09155413138023505,-0.5530763250133088,0.353546333897397,1.068718864596532,0.3681447432497656,-0.1676972583532625,-0.04696934551137959
1660172561144284,-3.570611123826893,3.082322423132609,0.3967345693140487,-3.505527411523745,3.737387301421194,1.791873815231064,0.3356759133574692,-0.1349697892707138,-0.02408460407275883
1660172561160273,-1.8616006713969,1.312275883115944,-1.251239795529045,-1.889118825918621,1.468113126263979,-0.1037278225300122,0.2925187434579302,-0.09332578584923243,-0.01057943613115042
1660172561176262,0.7629510948347615,-2.105745021744042,-3.021286335545938,0.7925339940553068,-1.721785435908408,-1.597368537184147,0.2837460648030237,-0.09535516432638787,-0.0241882070088637
1660172561192250,0.7019150072480898,-1.739528496223329,-2.349889372091184,0.7809168830011928,-1.367442219939961,-1.239361682299208,0.2963336718194757,-0.1200689855731748,-0.04688204876473054
1660172561208239,-0.03051804379333589,-0.213626306553806,-1.983672846570471,-0.01274524322286552,-0.1394726920911739,-0.6112044136413217,0.3024790449377023,-0.1321243048694239,-0.06168657753225477
1660172561224228,0.5188067444876197,-1.312275883115944,-1.739528496223329,0.5708082681983211,-0.6390815002626757,-0.4960549519868986,0.306943549137506,-0.1383527384082547,-0.07054465245728053
1660172561240112,1.190203707942374,-1.251239795529045,-1.373311970702616,1.183269237608287,-1.318880628016654,-0.1349662445449584,0.3209761691839588,-0.1540164354344893,-0.07559282202953539
1660172561256100,0.5188067444876197,-1.617456321049758,-0.8239871824216607,0.6040634613213476,-0.9225522374273034,0.5259390176550456,0.3352748307753959,-0.171947898358041,-0.07246503984465469
1660172561272089,-0.09155413138023505,-0.3967345693140487,-0.4577706569009479,-0.07462726516711213,-0.4796084361478041,0.6792268739500047,0.3395103203446297,-0.1831651837466418,-0.06282371271181429
1660172561288077,0.03051804379333589,-1.373311970702616,-1.251239795529045,0.06691781526081138,-0.6788486164243316,0.19955512986438,0.3394486447453793,-0.1924328401672189,-0.05579345668129922
1660172561304065,0.2746623941404778,-0.8239871824216607,-1.251239795529045,0.2904837332976029,-0.7640897638271218,-0.191593386683834,0.3423078571338466,-0.2039763472092306,-0.05572976273585485
1660172561320054,-0.3356984817273769,-0.1525902189669068,-1.556420233463086,-0.2163642061986854,0.1479311246194442,-0.07699610826603279,0.342900813350638,-0.208905616322892,-0.05787847869545379
1660172561336042,-0.7019150072480898,0.7019150072480898,-0.9460593575952316,-0.8247212784472499,1.365990135470053,0.1572671289995354,0.3345721294734705,-0.196794246242176,-0.05723631052958577
1660172561352030,-0.5798428320745188,1.251239795529045,-1.251239795529045,-0.35035737628416,0.9899109206191427,0.1007838357099543,0.3251715002356192,-0.1779470377934624,-0.05517190281190985
1660172561368019,0.9460593575952316,-1.617456321049758,-1.312275883115944,0.8534007284716705,-0.7709905479830623,-0.02636468578988963,0.3291958470531193,-0.1761956748123738,-0.05457654961254934
1660172561384007,1.190203707942374,-1.434348058289515,-1.068131532768803,1.215128136916712,-1.370540948574718,0.1073941606212884,0.3457440779762263,-0.193327926784836,-0.05392831381389815
1660172561399995,0.2746623941404778,-0.5188067444876197,-0.9460593575952316,0.4572650136440174,-0.2880363534291012,0.4605184987274603,0.3591232231807122,-0.2065965452008666,-0.04938501253910816
1660172561415984,-0.09155413138023505,-0.1525902189669068,-0.09155413138023505,-0.2631106765149117,0.4595194352192332,1.042175123562932,0.360676457877745,-0.2052246805465456,-0.03736346356078502
1660172561431972,-0.7019150072480898,0.213626306553806,0.5188067444876197,-0.4827123845511676,0.2050515116383878,1.862504926764002,0.3547098733892163,-0.1999081129716846,-0.01412602315816956
1660172561447960,-0.5188067444876197,-0.3356984817273769,0.8850232700083325,-0.5477229270336497,0.1177508728232694,2.21400092263815,0.3464663908965378,-0.1973256938959913,0.01848602363704766
1660172561463949,-0.09155413138023505,-0.213626306553806,0.4577706569009479,-0.1871448561643178,0.3052792328726139,1.517820774123011,0.3405874486309541,-0.1939414530504243,0.04834059721113695
1660172561479937,0.2746623941404778,0.3356984817273769,-0.8239871824216607,0.6341268295977577,0.1192413838686961,0.7222009523686701,0.3441633044184216,-0.1905452881164938,0.0662607710230704
1660172561495926,0.8850232700083325,-0.3356984817273769,-0.3967345693140487,0.5708051173901154,0.5709561160127897,0.6586040494331726,0.3538027599943246,-0.1850237081174419,0.07730721103748514
1660172561511914,-0.6408789196611906,1.8616006713969,-1.129167620355474,-0.4524852635851997,1.847665402222491,0.2366698385768422,0.3547493188247639,-0.1656747359715597,0.08446940214156526
1660172561527902,-0.5798428320745188,1.190203707942374,-2.410925459678083,-0.4253112577751894,1.493875943761759,-1.155846385345854,0.3477269466538808,-0.1389424052036857,0.07711598976741316
1660172561543891,0.4577706569009479,-0.5188067444876197,-3.082322423132609,0.2787162773903871,-0.1135990401087667,-1.832211265779676,0.3465541868108024,-0.1279001899744617,0.05321152855840892
1660172561559784,-0.8239871824216607,0.09155413138023505,-1.983672846570471,-0.6974120456087505,0.529264474269924,-0.6657261176481968,0.3432046206650555,-0.1245748665011725,0.03322802949098594
1660172561575772,-2.166781109330941,2.471961547264755,-0.3967345693140487,-2.049801936267772,2.413881137889163,0.7944410832723773,0.3212269088100433,-0.1010297016038998,0.03425774921597938
1660172561591760,-0.3967345693140487,0.4577706569009479,-0.7019150072480898,-0.4835514023750518,1.203111031837934,0.6664769826336578,0.3009600821009007,-0.07209376424608301,0.04594509374322767
1660172561607749,3.021286335545938,-2.594033722438326,-1.800564583810228,3.083112148644072,-2.57848418683954,-0.6394342463246785,0.3217565680710529,-0.08309674948609586,0.0461614356336995
1660172561623737,4.242008087281647,-4.486152437628789,-2.655069810025225,4.416555464664413,-4.098519148557119,-1.27945902981129,0.3817539089775207,-0.1365127761692691,0.03081028942461175
1660172561639725,2.349889372091184,-2.105745021744042,-1.739528496223329,2.125979526887471,-1.659992129822615,-0.5454825455724726,0.4340941889099358,-0.182580866396307,0.01621075682154165
1660172561655714,-0.3967345693140487,0.7629510948347615,-0.8850232700083325,-0.125927693430083,0.8771577230455074,0.4067048831839029,0.4500946035775949,-0.1888435416505239,0.0151005355224331
1660172561671702,1.251239795529045,-0.7019150072480898,-1.129167620355474,1.227253786174982,-0.2864470555588621,0.1770497524545634,0.4589052123195541,-0.1841178563106307,0.01977057260754083
1660172561687690,4.547188525215461,-4.058899824521177,-2.410925459678083,4.475836736344632,-3.696392941881588,-1.216933043714749,0.504529936499711,-0.2159805762901543,0.01145150627745934
1660172561703679,5.462729839017356,-5.584802014190927,-3.814755474174035,5.637350237910796,-5.396663580092035,-2.474156406626299,0.5854354322937544,-0.2887250284659433,-0.01807720932526904
1660172561719667,3.753719386587363,-4.303044174868319,-3.814755474174035,3.731918857538527,-3.862336901126512,-2.556932768133886,0.660389585057349,-0.3627970323156917,-0.05832592272335052
1660172561735655,0.4577706569009479,-0.4577706569009479,-2.777141985198796,0.4895058895411224,-0.2643696338671825,-1.572882181197855,0.6941609830339862,-0.3958106845956412,-0.09136444231800445
1660172561751644,-1.678492408636657,2.227817196917613,-1.678492408636657,-1.661132664339488,2.669816931939748,-0.3093600984494648,0.6847879688355993,-0.3765671062110607,-0.106422380555183
1660172561767632,-1.129167620355474,1.922636758983799,-1.007095445181903,-1.018631877582094,2.162499200657637,0.2120504245812826,0.6633498525002267,-0.3379085771502817,-0.1072008579461285
1660172561783620,1.373311970702616,-1.251239795529045,-1.800564583810228,1.359066538994244,-1.030450914935151,-0.582031828291403,0.6660733297915239,-0.3288521908645018,-0.1101607091758094
1660172561799609,3.143358510719509,-3.814755474174035,-3.20439459830618,3.130565076200638,-3.247927724511686,-1.803951790988401,0.7019903827130829,-0.3630792199800765,-0.1292485781300479
1660172561815597,3.936827649347606,-3.631647211413792,-3.082322423132609,4.065663670689962,-3.512458199099714,-1.9494808649226,0.7595602126882077,-0.4171623073689676,-0.1592760393773359
1660172561831586,4.242008087281647,-3.20439459830618,-2.105745021744042,4.288190584895149,-2.98438098567238,-0.7496186570123268,0.8263910467328887,-0.4691370208471444,-0.1808688355528153
1660172561847574,2.655069810025225,-1.617456321049758,-0.5188067444876197,2.53676750415595,-0.9545517452931176,0.723759149264994,0.8809907114452975,-0.5006484826948684,-0.1810757116147939
1660172561863562,0.03051804379333589,1.495384145876187,-0.213626306553806,0.2549411057979792,1.484127772756708,1.045648430429673,0.9033243803249289,-0.4964118744751597,-0.1669204509772366
1660172561879394,1.495384145876187,-0.2746623941404778,-1.617456321049758,1.415025987041256,0.1390093814544359,-0.3039342510186875,0.9166841170676427,-0.4834267772414705,-0.1609867375419487
1660172561895382,4.791332875562603,-4.180971999694748,-2.960250247959038,4.882868208603704,-3.78950983456604,-1.78824133749789,0.9670672706328024,-0.5126307808663634,-0.1777241422500813
1660172561911369,4.547188525215461,-3.814755474174035,-2.899214160372367,4.590842795550332,-3.649242506709016,-1.49277286633923,1.042856958666035,-0.5721407995965638,-0.2039722558807783
1660172561927356,0.09155413138023505,0.213626306553806,-1.495384145876187,-0.004638462549052202,0.7529290322098441,-0.3114424145186482,1.079546593330045,-0.5953113073925572,-0.2184059781276413
1660172561943344,-2.655069810025225,2.410925459678083,-1.739528496223329,-2.415936157610631,2.461663555451605,-0.5069918826202168,1.060181996368768,-0.5695945666912656,-0.2249534525047522
1660172561959331,-0.1525902189669068,-0.7019150072480898,-3.143358510719509,-0.1447217809693867,-0.2983389143974327,-1.768646605203832,1.039696732860127,-0.5522879695628322,-0.2431585604073446
1660172561975319,2.899214160372367,-3.143358510719509,-3.509575036240221,2.650157961664805,-2.591362567491339,-2.273093997859917,1.059740222305691,-0.5754055814179424,-0.2754924852318546
1660172561991306,2.899214160372367,-2.166781109330941,-2.777141985198796,3.284273528375644,-2.232754626077646,-1.60052930191042,1.107215674226014,-0.6139985189664943,-0.3064814716300173
1660172562007293,2.04470893415737,-1.373311970702616,-1.739528496223329,2.165373508782859,-0.9547987253628035,-0.3750857411574997,1.150812850523282,-0.6394989457780179,-0.3222863919745606
1660172562023281,2.04470893415737,-1.556420233463086,-1.251239795529045,1.383161370364606,-0.8825330686398313,0.1228415619475682,1.179201129556462,-0.654197600130039,-0.32430434540824
1660172562039268,3.20439459830618,-3.021286335545938,-1.617456321049758,3.948393949015923,-3.101413424429246,-0.6591866968615488,1.221853572111506,-0.6860691720745916,-0.3285951064875519
1660172562055256,6.256198977645454,-3.509575036240221,-2.960250247959038,6.682149446702486,-3.623165416750586,-1.507584481774709,1.306897919277254,-0.7398658028040302,-0.345929275916642
1660172562071243,8.33142595559616,-1.8616006713969,-7.415884641794491,6.472412458014073,0.07823573694473995,-5.836151126275858,1.412134414514986,-0.7682252402424771,-0.4046791607810465
1660172562087230,9.979400320439481,1.739528496223329,-20.96589608606087,12.11364616763101,0.1375344780528141,-20.25247007294684,1.560822883520147,-0.7664990785224967,-0.6133881303748281
1660172562103218,22.67490653849086,-6.012054627298312,-42.02334630350197,22.75256257662503,-5.148224906807461,-40.82687514519547,1.839752553474195,-0.8065846019525338,-1.102022892119967
1660172562119205,20.90485999847397,-9.85732814526591,-65.52224002441449,17.49932756271599,-8.108806950829996,-63.29718825442302,2.161767674588924,-0.9126408568136335,-1.935015399316915
1660172562135192,-13.33638513771257,-15.22850385290303,-95.55199511711317,-7.572359021808438,-16.91849055274927,-94.39512732674417,2.241183422916184,-1.112859236842268,-3.196553923966252
1660172562151180,-23.773556115053,-37.44563973449317,-114.5952544441902,-29.11209110769359,-36.52068937371698,-116.8390133419511,1.947707821880168,-1.540372676253998,-4.886427049315814
1660172562167167,-31.28099488822772,-41.0467689021134,-103.6087586785688,-28.47171065194055,-39.91019194822918,-94.56171089233023,1.487037407803095,-2.151819726829567,-6.577632843190065
1660172562183155,-7.782101167315204,-15.89990081635756,-38.1170366979477,-7.41321313484086,-15.82783943566733,-45.74434700895625,1.199958017508843,-2.597723977900739,-7.700081306400357
1660172562199127,18.70756084534969,5.462729839017356,-29.87716487373154,16.69738248150282,3.917133875964022,-22.77246960222466,1.274231372282139,-2.693009622378365,-8.248215839289804
1660172562215114,25.97085526817727,0.7629510948347615,-23.22423132677181,27.62747714985408,4.26865621698234,-23.48300597565899,1.628830249332994,-2.627523301634795,-8.618259643912873
1660172562231102,23.34630350194539,8.636606393530201,-18.03616388189516,23.36188851878673,6.443766566633946,-17.52197194811379,2.036745174682121,-2.541823919365864,-8.946299467303056
1660172562247089,8.575570305943302,18.28030823224231,-10.40665293354687,7.699992655015292,19.1717941252025,-8.358560920556528,2.285240224072537,-2.336899433831173,-9.15334373025242
1660172562263076,-10.34561684596019,27.19157701991298,-4.791332875562603,-10.08070927169486,28.6041756276933,-3.972833851309764,2.266194491139101,-1.954691675808006,-9.251994888427351
1660172562279064,-18.76859693293659,28.96162355992965,-1.068131532768803,-17.68190871664164,27.79885693482017,1.052543532789077,2.044093547232409,-1.503467415307898,-9.275357210975516
1660172562295051,-20.05035477225897,24.01770046540014,0.8239871824216607,-20.92327671956743,24.61168134534662,0.9827099390106802,1.735252063742736,-1.084183109066564,-9.259075183201118
1660172562311039,-23.95666437781324,22.00350957503611,-3.509575036240221,-25.08951163001609,24.11621441656122,-2.115435985300867,1.367149756946068,-0.6943599429713014,-9.268136991571438
1660172562327026,-13.09224078736543,22.36972610055682,11.26115815976186,-9.841464096207861,19.44405213324118,14.14457077525622,1.087701951136277,-0.3458778105728822,-9.171903913251796
1660172562343013,28.10711833371465,6.378271152819025,49.40871290150289,25.06589943002384,9.525870426938331,48.03084842448924,1.209497433806805,-0.1141184300914461,-8.674500559653833
1660172562359001,41.29091325246031,5.157549401083315,63.93530174715806,42.5896294460699,4.537862068629016,67.70939184677103,1.750741664815555,-0.001608570126907377,-7.74857863748375
1660172562374988,31.89135576409535,6.561379415579495,64.85084306095996,31.74422253998401,6.137236870938322,64.363989650433,2.345412480703986,0.08379222138963133,-6.691991585506118
1660172562390976,13.64156557564661,9.002822919050914,54.16952773327193,14.47946180816834,10.02672659017558,55.89303684947016,2.715201955489205,0.2131039290785425,-5.729935373506892
1660172562406963,1.129167620355474,15.22850385290303,37.81185626001366,-0.05493210564605255,16.39944970411907,41.0899848469069,2.830598193109383,0.4245133394328997,-4.954071199935876
1660172562422950,-5.340657663843785,21.69832913710229,8.148317692835917,-6.134960570014331,19.71214561363288,4.305316268086541,2.7810790517041,0.7134061019749153,-4.590908791015928
1660172562438938,-10.28458075837329,7.049668116273779,-60.82246128023189,-5.82503983019845,9.181139250775949,-53.19343893379304,2.685399048502398,0.9445523808901859,-4.98201377234158
1660172562454925,-23.7125200274661,-21.63729304951539,-116.6704814221409,-28.92469699209595,-20.24963612269584,-118.4678475274591,2.407401153924043,0.8560044059148268,-6.355304064031598
1660172562470913,-61.12764171816593,-52.4605172808424,-154.7570000762951,-60.59277105704594,-56.97396697613951,-157.8723144281833,1.691261409530907,0.238215581124144,-8.566025359676738
1660172562486900,-39.70397497520412,-76.20355535210183,-139.3759060044251,-33.1176195166597,-69.19976623427281,-126.7641363998949,0.9415782849412622,-0.7711742845591547,-10.84311696630136
1660172562502887,44.22064545662602,-38.66636148622888,-40.00915541313816,34.79910898643502,-43.45072541282414,-51.31642019133369,0.9550302006994648,-1.67237821773593,-12.26776141903119
1660172562518768,45.07515068284101,-11.38323033493543,-18.64652475776302,51.35636758263854,-9.713732764416754,-9.48527567453465,1.644274013252053,-2.097693883153858,-12.75417498595814
1660172562534755,18.70756084534969,3.570611123826893,-4.791332875562603,17.80186047013174,5.537317778533406,-5.669725510485334,2.197539837674216,-2.131105203040924,-12.8754149954383
1660172562550742,1.739528496223329,11.93255512321662,1.922636758983799,-0.6821285642287518,10.20476242005508,2.440001697116993,2.33449769292144,-2.005168561452217,-12.90125278594525
1660172562566729,-15.77782864118399,18.46341649500255,1.007095445181903,-11.94267990061836,18.75350264866538,3.864228882561776,2.233499225202663,-1.773502440902453,-12.85081894130782
1660172562582716,-42.02334630350197,26.33707179369799,-9.552147707331869,-45.85065291698338,29.52577132290419,-11.02611235886224,1.771152562661849,-1.387268249129896,-12.90811400911822
1660172562598703,-57.16029602502476,33.60036621652534,-2.838178072785468,-55.24595839265396,29.4923549450644,2.452022997890375,0.9623796721847503,-0.9151232389861477,-12.97670672400599
1660172562614689,0.3356984817273769,12.78706034943161,61.79903868162046,2.280086750345115,16.69304294232709,59.57703437568502,0.5386526990462794,-0.5456400558870158,-12.48047426501739
1660172562630676,73.94522011139088,6.988632028686879,112.8862439917602,69.73582094844147,6.047187132072886,115.2665512849146,1.114779960636572,-0.363718215291816,-11.08172557973259
1660172562646663,80.41504539559037,1.617456321049758,137.727931639582,82.89912884228781,1.293914624588265,139.8551287670601,2.335859558962406,-0.3049894012385267,-9.040752139316798
1660172562662650,60.39520866712428,-7.782101167315204,137.117570763714,62.26975363434319,-6.493469178910474,137.6674563258075,3.497210618775454,-0.3465858376731044,-6.820571458573857
1660172562678637,46.78416113527101,-10.83390554665448,113.6797131303883,42.28489939504757,-10.70923188964154,114.223970600612,4.33364784301058,-0.4842074462215205,-4.805440043162501
1660172562694624,14.92332341496899,3.143358510719509,79.13328755626799,18.61773949988082,2.780437136851829,81.75639021002657,4.820868954170007,-0.5476378042438382,-3.237597156677393
1660172562710611,-6.805523765926637,24.68909742885467,50.08010986495765,-7.393133018568409,25.89287089119484,51.04026578727365,4.910665806020506,-0.3182513400194649,-2.175223908698992
1660172562726598,-17.0595864805066,30.60959792477297,11.68841077286947,-18.85772964336726,30.65092354441931,11.95583081028716,4.700658904725021,0.1340990154654483,-1.671255135918505
1660172562742585,-13.94674601358042,5.523765926604028,-34.332799267567,-11.83359942111216,5.365558072735269,-32.09090149866717,4.455128272209185,0.4222308684026849,-1.832335701425545
1660172562758572,-3.692683299000464,-26.09292744335085,-58.3199816891738,-4.391784251919571,-25.75881580842739,-57.45919426365403,4.325325202824931,0.2590848065171479,-2.548736467524114
1660172562774559,-16.57129777981231,-43.61028458075839,-72.41931792172113,-16.07768408132097,-41.41931006499761,-69.25145450713964,4.161569456159007,-0.2783402004702521,-3.562421657690463
1660172562790546,-22.30869001297015,-48.06591897459384,-73.64003967345684,-25.71507057437904,-51.05078196507352,-78.47754828544788,3.827227418913407,-1.018100936710821,-4.744253680031163
1660172562806532,-7.049668116273779,-56.12268253604952,-70.89341573205161,1.267471790958314,-53.7753672317339,-59.60850882589649,3.631646628646041,-1.85671013028528,-5.848942136921918
1660172562822519,47.88281071183314,-34.02761882963318,-4.669260700389032,37.44897360533687,-32.23123518749733,-13.49448251784297,3.941378191816403,-2.54476294963913,-6.433766067671834
1660172562838409,30.30441748683893,1.617456321049758,0.3967345693140487,37.58378466140321,-2.294421501625846,8.107467462872975,4.541640257950323,-2.820968203152116,-6.476862188111594
1660172562854395,20.05035477225897,3.082322423132609,-4.364080262455218,19.44067405155415,7.269021291560954,-5.176157072881226,4.997835927653982,-2.781171404832635,-6.45341170499166
1660172562870382,16.9985503929197,5.462729839017356,-11.07804989700162,12.20813775983154,4.655567344125226,-10.79655622935984,5.251026422145068,-2.685774695747146,-6.581193411409588
1660172562886368,-8.51453421835663,10.95597772182805,-7.293812466620921,-2.39333148064097,9.843534161429048,-3.123473313033269,5.329544872378592,-2.569781883702711,-6.692553647748733
1660172562902355,-37.50667582207984,20.29449912260611,-8.087281605249018,-39.97855313376679,22.38880411429836,-10.40989462608811,4.99056979546333,-2.311923177496892,-6.800820591261704
1660172562918341,-54.71885252155334,29.6330205233844,-22.064545662623,-58.84018004518863,30.05398449488265,-18.59552157611351,4.200019930031686,-1.892380868623444,-7.032863920879318
1660172562934328,-19.80621042191183,25.05531395437538,4.791332875562603,-10.10552783283688,22.7887683232922,6.791492125783148,3.648454267007482,-1.469638846078045,-7.12729615648196
1660172562950314,74.37247272449849,3.20439459830618,47.82177462424647,64.62825787255525,7.198202905429318,46.31974162150872,4.084636107325229,-1.229743076248273,-6.702406286503625
1660172562966301,72.6634622720685,1.312275883115944,54.84092469672669,77.66455030445407,-1.174158696808689,58.64465298625285,5.222978572741304,-1.181550722579308,-5.862691129641533
1660172562982287,33.05104142824439,-3.936827649347606,46.84519722285791,32.7446799334267,-2.614679477009161,46.64586662945307,6.10625241464435,-1.211861427969851,-5.020366972715886
1660172562998273,-4.852368963149502,-2.532997634851654,22.43076218814372,-5.024925698839881,-1.86547735149931,25.41268333654415,6.328010448521044,-1.247702682597918,-4.443898572987908
1660172563014260,-21.21004043640801,9.613183794918768,-9.552147707331869,-23.09397386338147,9.014745144269209,-11.36177683054816,6.103059252023273,-1.190508540255759,-4.33149132093994
1660172563030246,-44.64789806973386,26.82536049439227,-63.87426565957117,-42.29409800210897,28.06973879404871,-59.45218481940299,5.57995467709935,-0.893832668749216,-4.898003014139549
1660172563046233,-63.75219348439759,32.56275272755011,-102.5101091020067,-61.79047601555276,32.40418962075067,-101.3333038985272,4.747278084958056,-0.410041241430821,-6.184286923882991
1660172563062219,-47.21141374837885,11.74944686045615,-116.609445334554,-56.70655872434168,11.72846676664833,-120.294464906318,3.7993018070389,-0.05697999033162898,-7.957309074321752
1660172563078206,-19.68413824673826,-13.76363775082018,-104.3411917296103,-4.203347995108743,-12.63726509796536,-94.66937106040706,3.312022553283297,-0.06425037698216521,-9.677019762055552
1660172563094192,74.61661707484564,-19.62310215915159,-28.10711833371465,59.86204742192185,-19.74716280787327,-34.42360082298526,3.757292148697802,-0.3233258002288742,-10.70976353712269
1660172563110179,61.61593041885999,-13.88570992599375,1.007095445181903,69.49514253176292,-13.84566434654658,5.801497272607133,4.79214966832728,-0.5920684174642331,-10.93874036552572
1660172563126165,33.29518577859153,-5.95101853971164,1.129167620355474,33.26712692008284,-5.293246301599961,2.830539094405232,5.614247823942046,-0.7451797026494055,-10.86968407458962
1660172563142151,9.369039444571627,1.8616006713969,-9.552147707331869,6.06726101834326,2.508058363044583,-10.35712030704744,5.928922927449455,-0.7674612061578485,-10.92989672429076
1660172563158050,-5.706874189364498,8.758678568703772,-14.86228732738232,-3.949552308413294,8.531780174761538,-12.21454273382828,5.945864597128895,-0.6791424978553996,-11.11047002861776
1660172563174037,-20.90485999847397,18.70756084534969,-17.85305561913469,-19.10674153875571,17.91912503316739,-15.75366798114016,5.761414246351543,-0.4675352561919682,-11.33421571433751
1660172563190023,-38.72739757381555,20.41657129777968,-22.18661783779658,-41.97488983865109,24.91836500617072,-24.37104015634553,5.272761195332288,-0.1248353358772633,-11.6552133794374
1660172563206009,-45.44136720836195,10.16250858319972,-21.39314869916825,-44.26868456520371,4.435937794795778,-15.10982028474131,4.58281260010145,0.1099990865304686,-11.97106026296609
1660172563221996,-4.669260700389032,-38.05600061036102,25.36049439230942,-1.78817190474081,-33.33970929651539,22.09293175842525,4.214357748341894,-0.1212310854832883,-11.91519537117662
1660172563237982,53.25398641947049,-38.84946974898912,58.01480125123953,48.31560061451421,-39.02429120826939,61.87213956684496,4.586577178020081,-0.7001430895215663,-11.24347480057446
1660172563253969,44.64789806973363,-10.77286945906758,77.24116884107752,48.50878168782281,-12.69233598477594,77.88934186307176,5.361172236438778,-1.113876107065929,-10.12538294913512
1660172563269955,13.64156557564661,-4.058899824521177,70.89341573205184,12.16347378126924,-1.456942019812138,71.80709271300196,5.846550280191514,-1.227070331102633,-8.927811472526532
1660172563285942,-12.05462729839019,-6.805523765926637,58.0758373388262,-11.57933144587177,-7.783454499953452,59.60822431099373,5.851223418874694,-1.300993503260758,-7.876488936334566
1660172563301928,-15.10643167772946,-3.936827649347606,47.02830548561815,-15.51995836234227,-2.780190378662506,48.53090366193217,5.634429100408981,-1.385502662289686,-7.011375912551159
1660172563317915,-12.11566338597686,4.791332875562603,31.89135576409535,-12.03111867653729,4.608312766696375,33.03513909701283,5.414020484097945,-1.370877683185415,-6.358847570479599
1660172563333901,-3.143358510719509,-4.42511635004189,11.5663385976959,-2.014218675632112,-4.675919394144154,11.90167666347216,5.30165778528059,-1.371418536204997,-5.999353044395719
1660172563349887,8.758678568703772,-16.75440604257255,-12.17669947356376,7.030238324752299,-14.7169477254019,-9.129060402253579,5.341785942473551,-1.526561473161365,-5.97717211430597
1660172563365874,9.308003356984727,-10.10147249561305,-33.78347447928604,10.39343530121393,-11.73594458486688,-32.9804193811464,5.481175331481281,-1.738184611643516,-6.31404795257317
1660172563381860,20.29449912260611,-11.93255512321662,-48.85938811322194,20.64855713566347,-10.01939311411678,-50.91459982028553,5.729511270976301,-1.912227313235385,-6.985208106184626
1660172563397847,37.9949645227739,-11.38323033493543,-42.45059891660958,37.147961267539,-12.94468152938157,-34.16364775287958,6.19188341820192,-2.095939910383372,-7.665834086769946
1660172563413833,41.90127412832817,-10.28458075837329,13.33638513771257,42.37123549186836,-7.173470615630919,7.200073577004977,6.828036992277179,-2.256885127543472,-7.881542680176943
1660172563429820,38.97154192416247,3.692683299000464,17.73098344396112,38.9362754303867,1.078829919272143,23.29109962611404,7.478497079655219,-2.305642253114342,-7.637613294551991
1660172563445806,37.26253147173247,-1.617456321049758,5.523765926604028,37.62542726852688,0.09972179080121252,6.243675227609914,8.090990701246527,-2.296213839433755,-7.401335095722199
1660172563461793,26.33707179369799,-1.190203707942374,-9.124895094224485,26.10848124452119,-0.2758271290594335,-9.079461337916898,8.600861969350913,-2.297622682139821,-7.424021384604655
1660172563477722,1.251239795529045,6.317235065232353,-13.64156557564661,0.553719581177333,5.570917540797463,-11.5786861191684,8.8141595759565,-2.255261958845917,-7.589286564261338
1660172563493708,-18.40238040741588,10.34561684596019,-17.73098344396112,-17.22232151357132,10.17594182714361,-15.80989106899309,8.680810760497348,-2.129287083902388,-7.808395181766629
1660172563509694,-27.74090180819394,12.11566338597686,-24.62806134126799,-26.37699917367374,14.67219647940671,-25.251580590939,8.332016194999387,-1.930501977449986,-8.136886955046085
1660172563525680,-31.28099488822772,17.48683909361398,-29.32784008545036,-37.49645365310629,15.73968184961345,-25.81491993733548,7.821028572385146,-1.687206950817825,-8.545418959272281
1660172563541666,-37.62874799725341,3.570611123826893,-5.645838101777599,-27.81767328173801,3.690457759518191,-6.139498090318545,7.298515556906392,-1.531765833944772,-8.801054303493514
1660172563557652,15.04539559014256,-11.38323033493543,21.57625696192872,6.50520929856301,-8.563577743164871,23.91350820568183,7.128015845040992,-1.570750793813945,-8.658862222570608
1660172563573638,16.44922560463874,-2.410925459678083,43.61028458075816,20.32433867592662,-5.073175514557215,44.33710717888476,7.34265222883691,-1.679844819875722,-8.112857299494076
1660172563589624,3.570611123826893,-1.251239795529045,48.06591897459339,3.831264270451412,0.692287772422018,49.36812415507313,7.535897052407934,-1.714891921812803,-7.363215448822412
1660172563605610,-5.279621576256886,-7.965209430075447,44.95307850766744,-6.516690869141367,-7.464529524803355,46.82278053829214,7.514413639618414,-1.769069855831854,-6.59368821127549
1660172563621595,-4.180971999694748,-21.14900434882111,45.19722285801458,-3.478689703062458,-22.08515943213421,45.54570075867673,7.434450595040784,-2.005467367487354,-5.854740360899739
1660172563637581,3.20439459830618,-33.96658274204628,48.43213550011433,2.734051112223771,-32.75364889460027,49.88021251738915,7.428493486314074,-2.44417783410123,-5.091333054691212
1660172563653567,16.69336995498588,-45.31929503318838,47.27244983596529,17.3514825630757,-44.11916006320015,50.23207259206563,7.589177755716469,-3.059160305763633,-4.290434773815574
1660172563669553,23.16319523918514,-50.01907377737098,33.78347447928581,23.78286456450136,-52.49529738103561,31.89978509225023,7.918252532737085,-3.83207596531752,-3.633379912341047
1660172563685539,1.8616006713969,-37.62874799725341,-1.922636758983799,-1.08162891265011,-34.96460202007798,1.167637125072623,8.099862417951895,-4.531755160526429,-3.368840534602464
1660172563701525,-27.98504615854108,-3.875791561760934,-31.28099488822772,-23.6446181780863,-2.129427077094296,-26.85769815371177,7.902052441226004,-4.828507393303807,-3.574361022831577
1660172563717511,2.288853284504512,2.410925459678083,-34.14969100480675,-1.056394709272729,-3.044099697046379,-42.19729596803789,7.704444338127131,-4.869895607496932,-4.126800975805574
1660172563733497,35.0652323186082,-39.58190280003055,-37.44563973449317,36.87040640303182,-32.85478171826759,-23.8530099686903,7.990956431677204,-5.157086658819444,-4.6552034232994
1660172563749483,43.36614023041102,-33.11207751583129,33.60036621652534,42.36515367440152,-35.42541293803077,24.9191258770228,8.624840912296671,-5.703328216069831,-4.64667449603274
1660172563765469,27.43572137026013,-8.209353780422589,45.31929503318815,27.92967554848742,-9.928686955296429,51.10225104688109,9.187199546079782,-6.066161015216449,-4.038503480641509
1660172563781455,19.25688563363087,-5.096513313496644,30.4875257495994,20.42627821571101,-0.8648354253612252,31.50617947824504,9.574047176193369,-6.15250919426171,-3.3776360364405
1660172563797424,16.75440604257255,-9.918364232852582,4.486152437628789,14.23812387918194,-11.97719841246669,4.66526734503547,9.851362392952513,-6.255245464964333,-3.088264461854256
1660172563813410,4.058899824521177,-12.60395208667114,-7.598992904554734,5.120299822200991,-13.23927539464405,-5.390380921704788,10.00622978256358,-6.456977255421219,-3.094065370467611
1660172563829396,-12.05462729839019,-1.739528496223329,-9.613183794918768,-7.739060437269141,2.256269387790736,-9.457964385159526,9.985279697643032,-6.544841303476046,-3.212852132922525
1660172563845382,-20.66071564812682,13.39742122529947,-11.93255512321662,-30.70980102808229,9.92964079857023,-8.652116034927797,9.677688805920219,-6.447354021985158,-3.357732776283224
1660172563861368,-47.21141374837885,-2.105745021744042,8.941786831464015,-35.72601569577364,-0.7624369437717791,7.174833670505635,9.146202272129372,-6.374016391146771,-3.369551035198601
1660172563877354,9.124895094224485,-8.270389868009488,28.35126268406179,2.14843982638747,-5.728563496604758,33.05825596547666,8.877581665174283,-6.425944394669783,-3.047686318110743
1660172563893340,35.18730449378177,6.988632028686879,51.36186770428003,36.05877545343035,4.132597208928154,50.00033667997648,9.183239387412826,-6.438712124971196,-2.383217576947118
1660172563909326,21.45418478675515,7.049668116273779,48.98146028839528,23.61363111495144,8.925102105509888,51.01774624965337,9.66061863995988,-6.334250530455692,-1.575072913510079
1660172563925312,-2.227817196917613,7.476920729381163,46.35690852216362,-3.275733992829774,7.999092557071741,48.55080989374051,9.823321816936854,-6.198856973155038,-0.7785244643629279
1660172563941298,-10.58976119630734,11.01701380941472,47.51659418631243,-11.52879472495363,11.11123338509683,47.69689381503726,9.704885587194587,-6.04597436561769,-0.00854283469270567
1660172563957284,-11.26115815976186,9.063859006637585,39.64293888761722,-9.942313190388806,8.679469801176088,40.74554248769905,9.533116723871847,-5.887648740127506,0.6989966557291849
1660172563973270,-11.26115815976186,1.8616006713969,26.03189135576395,-10.71757007250251,2.468447686240379,28.46847419312669,9.367837657768717,-5.798465400228174,1.252708789175791
1660172563989256,-14.49607080186161,6.805523765926637,10.71183337148091,-17.27181597353433,8.991492659638359,11.59314850831472,9.143922569400424,-5.706785877461145,1.573201770787322
1660172564005241,-38.36118104829484,34.02761882963296,-16.32715342946517,-34.82842588302907,31.23113392265829,-16.87015228001012,8.727120634547916,-5.385004864802771,1.530985740613759
1660172564021227,-62.0431830319676,69.00129701686137,-54.5357442587931,-63.16525327656124,69.45927030069687,-49.81749417340045,7.943171201271193,-4.57948163101593,0.9974845689864742
1660172564037213,-73.33485923552303,92.19501029983985,-70.58823529411757,-76.64474116518241,98.92840038679566,-72.08190629077771,6.824691245737244,-3.23238026551599,0.02228936527304881
1660172564053199,-53.49813076981764,74.18936446173802,-85.23689631494608,-47.23561976021995,63.7811602956699,-84.32807782006614,5.833648358334025,-1.930703780056265,-1.228990507613702
1660172564069185,-4.119935912108076,-19.37895780880444,-100.434882124056,-7.559309987338935,-11.93012507606938,-94.64798992079633,5.395288920353554,-1.515895498299461,-2.660799049540602
1660172564085171,-2.899214160372367,-33.41725795376533,-92.13397421225295,-7.029634348777659,-30.56608669351629,-98.42808678761808,5.278577365664622,-1.855865192456146,-4.205407663207917
1660172564101157,-27.92401007095441,17.73098344396112,-88.47180895704582,-17.28652560061821,7.910836165511139,-79.58134885223234,5.084048086069455,-2.037107196680187,-5.62948314832672
1660172564117065,10.89494163424115,14.25192645151446,-36.28595407034413,0.4515867823217588,24.52398540904479,-39.48134060622835,4.949368575523083,-1.77762862408374,-6.581984663994406
1660172564133051,13.39742122529947,14.67917906462185,-9.246967269398056,18.35033989684158,11.10258265923557,-7.791723536183352,5.09978398895639,-1.492616079537497,-6.960169177133699
1660172564149036,16.08300907911803,6.866559853513309,-5.157549401083315,16.30242893282688,5.086646902161648,-1.486843822928896,5.377006139593738,-1.36310224304632,-7.034397716006597
1660172564165022,6.927595941100208,5.95101853971164,-5.645838101777599,6.417188026073424,9.969836315460846,-6.558699726638347,5.558763075264941,-1.24265037730534,-7.098762064403135
1660172564181007,-7.232776379034021,8.636606393530201,-8.087281605249018,-9.874662807018705,8.185698905531668,-6.459415017883392,5.531103277017379,-1.0974060955374,-7.202906982359309
1660172564196992,-19.9893186846723,-3.814755474174035,7.354848554207592,-14.79215209337591,-7.039613441032609,9.72772027061724,5.333768757814222,-1.088237411821407,-7.176760540337439
1660172564212978,17.48683909361398,-19.37895780880444,44.83100633249387,13.06024600389087,-13.71003942165553,44.81561616255711,5.319913509098342,-1.254234634722912,-6.740413848872044
1660172564228963,39.70397497520389,10.77286945906758,76.3866636148623,41.81486784520115,7.575530805678333,78.35871220778903,5.758914419891078,-1.30331070365073,-5.755019221909275
1660172564244949,35.18730449378177,28.10711833371465,84.50446326390511,34.72390119568285,28.75210517491355,85.59038041841778,6.37122457221815,-1.012689615805995,-4.44342648089962
1660172564260934,8.270389868009488,21.02693217364754,67.96368352788613,8.30716664994509,22.73713433688825,69.26949739487294,6.715473114983173,-0.6007756997115803,-3.204547458393295
1660172564276920,-11.44426642252233,13.51949340047304,47.21141374837862,-10.53847982049027,12.49310044220993,48.1787842846775,6.697622609618812,-0.3189338214787948,-2.264961204956891
1660172564292905,-14.80125123979542,17.36476691844041,22.73594262607753,-17.33886315572636,18.45272079973825,24.89859249875773,6.47460386580908,-0.07136725154320939,-1.680342190689409
1660172564308891,-20.35553521019301,25.8487830930037,-11.81048294804305,-16.88356778228452,26.03394908361711,-11.73201343549212,6.200824418304992,0.2845261075236335,-1.575009558183284
1660172564324876,-22.55283436331729,28.53437094682226,-59.96795605401689,-23.62800180205602,27.79318418266905,-58.23645899118303,5.876731861630268,0.7151431736539228,-2.134757337596685
1660172564340862,-36.95735103379889,24.50598916609442,-101.5335317006181,-41.50393921092079,27.05589528496218,-99.34358709616451,5.355676333526453,1.153935809394973,-3.395397706295466
1660172564356847,-58.13687342641333,9.85732814526591,-127.2907606622416,-47.69457498590782,8.583474774909966,-127.2758999303204,4.642088219951825,1.43905076987395,-5.208353602507344
1660172564372833,-23.59044785229253,-24.26184481574728,-128.6945906767376,-35.55833435114494,-25.48309199522353,-128.1421014885897,3.976064945255403,1.303853832111441,-7.251697613858624
1660172564388818,-29.14473182269012,-37.3235675593196,-94.45334554055103,-21.16561736251558,-32.10760714785973,-89.32528210963522,3.522273331546119,0.8431282389667751,-8.991436682644423
1660172564404804,-4.486152437628789,2.471961547264755,-35.98077363241032,-5.652878797098618,-2.946021254848273,-40.0471454771741,3.307725362269205,0.5626992117451111,-10.0264161033389
1660172564420789,13.51949340047304,8.453498130769731,-25.48256656748299,10.26912603646502,12.81566040799099,-20.4179158567765,3.344655340184137,0.6416563249702527,-10.5101365940105
1660172564436706,12.23773556115043,5.035477225909744,-22.73594262607753,14.8833298398906,3.589136370186212,-22.34317301975083,3.545874987194982,0.7728946991956702,-10.85222530502272
1660172564452692,1.190203707942374,8.697642481116873,-22.49179827573039,3.240315648573931,8.194208707282593,-22.20148694241317,3.690864151102698,0.8671614598154207,-11.20858258472003
1660172564468677,-14.86228732738232,14.37399862668804,-23.46837567711896,-21.11658437062386,19.44914888137725,-21.0022586605374,3.547854001326298,1.0883083205247,-11.55421254954364
1660172564484663,-35.79766536964985,8.026245517662346,-12.84809643701828,-29.20975644138207,-0.5587291656499485,-12.32620076288751,3.145243274830251,1.239431678250518,-11.82084022493104
1660172564500648,14.92332341496899,-32.623788815137,21.75936522468896,11.7782653478995,-22.72423426110581,23.21998858971295,3.00579134608239,1.053167970836472,-11.73368992231643
1660172564516634,67.41435873960518,4.303044174868319,71.80895704585373,67.30993651990106,-0.8217578759105049,73.7814579939556,3.638496961024795,0.8648000337403413,-10.95767834964708
1660172564532619,72.72449835965517,31.15892271305393,102.5101091020065,73.68731514035125,31.37383837719582,102.1167947736327,4.766474974306814,1.109216677750624,-9.550492327506378
1660172564548605,37.01838712138533,24.62806134126799,93.96505683985652,36.97078398599033,27.53450158473754,96.94687454914749,5.651739767317546,1.580483397446091,-7.957982972924136
1660172564564590,6.500343327992596,5.889982452124741,77.85152971694515,6.077551168164949,4.836129128217704,78.67279970844774,5.996126448550789,1.839448443149733,-6.553025578863374
1660172564580576,-4.791332875562603,-9.430075532158298,64.60669871061282,-4.554233098689902,-9.840592491672631,64.61913612300064,6.008312993106589,1.799412736242094,-5.406690092211787
1660172564596561,-8.087281605249018,-16.26611734187827,48.79835202563481,-7.613472095741438,-15.03167151208014,51.94380762275745,5.910971351551138,1.600434624212071,-4.474186542245722
1660172564612547,-10.95597772182805,-13.76363775082018,21.69832913710229,-12.25316634771328,-12.45012155577087,22.55530498308953,5.752038244003501,1.380580279669263,-3.878193641398946
1660172564628532,-34.63797970550104,-1.556420233463086,-30.85374227512011,-32.13004032580172,-4.121338556021014,-31.92832604444859,5.39697259061538,1.248008598774928,-3.953177809889818
1660172564644518,-74.86076142519255,2.105745021744042,-97.62722209506387,-78.00302647381837,4.515016917795835,-92.5972777851066,4.51590805621842,1.251158025669127,-4.94938264052626
1660172564660503,-123.2013427939269,-4.364080262455218,-138.1551842526894,-120.4123208199473,-2.076431388222727,-138.3418467528101,2.928585277868295,1.270666709905711,-6.796895636829594
1660172564676489,-104.3411917296103,-30.24338139925226,-150.5455100328068,-106.0965246553389,-36.58090123562704,-153.1835490686162,1.116514514066005,0.9614080489149133,-9.129098803401003
1660172564692474,-35.73662928206318,-74.55558098725874,-126.863508049134,-34.14172325471532,-66.32686955952548,-117.2624847198433,-0.005391469214428568,0.1381458825536932,-11.29266707370868
1660172564708459,35.67559319447605,-46.66208896009766,-44.34271763179981,33.6046119595538,-50.86868983099686,-51.04748852752739,-0.009688359575720697,-0.7994185925704854,-12.63914685968765
1660172564724445,52.2163729304948,-17.54787518120088,-15.04539559014256,54.80912882426539,-17.96718618674542,-10.46772479040892,0.6976215666948328,-1.350105600712424,-13.13126856623114
1660172564740430,49.16456855115575,-16.87647821774613,-6.744487678339738,46.63595733353979,-12.15443957241533,-4.253343688115913,1.509182255957274,-1.59107860678571,-13.24903711405934
1660172564756378,29.69405661097107,-9.613183794918768,-2.532997634851654,31.6791441629941,-14.59982708697554,-3.147482849674812,2.135703067929545,-1.805112740060837,-13.30824372636166
1660172564772363,5.218585488670215,0.03051804379333589,0.213626306553806,5.547395136744699,3.641224930776957,0.5593221779502549,2.433515382327455,-1.892781557310425,-13.32894901173546
1660172564788348,-12.23773556115043,13.2753490501259,7.476920729381163,-16.85179236289311,15.46962334170781,12.67452499257608,2.343080204518268,-1.739894771130547,-13.22307823437125
1660172564804333,-2.960250247959038,10.10147249561305,50.56839856565193,6.335646028913251,1.728699128343137,47.37304107256774,2.258951033846429,-1.60230819137014,-12.7426977058501
1660172564820318,80.04882887006943,-7.049668116273779,91.76775768673224,68.92933261997578,5.912419040981178,95.42369831711537,2.861070863037542,-1.541179246015545,-11.60032379073263
1660172564836303,96.95582513160934,52.82673380636288,127.412832837415,106.3073200767919,42.85616923248997,129.2614612582516,4.262964084611683,-1.151030539827776,-9.802842514129697
1660172564852288,88.47180895704605,51.30083161669336,130.4036011291678,83.41736631364311,55.16917102815032,129.2657961995137,5.780761575735164,-0.3668278177426537,-7.734624454467575
1660172564868273,33.4172579537651,22.064545662623,97.07789730678269,33.95795655069482,24.37805513021679,100.520465183972,6.719764158649867,0.2695499915242832,-5.896334363399689
1660172564884258,1.800564583810228,0.213626306553806,68.39093614099374,4.408051219764079,-2.562758854218354,69.08915447568027,7.026692220813538,0.4440723617322706,-4.53945740612247
1660172564900243,0.213626306553806,-9.369039444571627,47.02830548561815,-2.678858625802007,-8.165495001649651,47.24696324872372,7.040525761565235,0.3582463308853265,-3.608768464327238
1660172564916228,-10.10147249561305,-15.04539559014256,20.35553521019301,-8.707710970242699,-13.11143253005322,23.72487875563221,6.949433204796877,0.1880309106317036,-3.040993728292391
1660172564932213,-12.29877164873733,-18.09719996948184,1.312275883115944,-12.7247873597255,-20.09651473630736,0.06137530534333013,6.777973218157132,-0.07763266749918107,-2.850703695804587
1660172564948198,-13.51949340047304,-17.36476691844041,-11.38323033493543,-11.6339201140467,-16.55446542675805,-8.426084390372578,6.583103558366954,-0.3708405088037044,-2.91762136848482
1660172564964183,-14.55710688944828,-13.15327687495233,-17.18165865568017,-18.24082656051496,-10.03513745372928,-14.89556030444334,6.34410558497046,-0.5835573318476031,-3.104194526043348
1660172564980168,-28.35126268406179,-11.505302510109,-42.81681544213029,-25.85185108966506,-15.62976348935241,-45.68174138614082,5.99136416376902,-0.7888765393922565,-3.588812939568021
1660172564996153,-35.18730449378199,-18.64652475776302,-97.32204165712983,-32.57030380557593,-17.39702131016733,-91.90639530637728,5.523986924607092,-1.053090817788414,-4.689518033108166
1660172565012138,-53.55916685740453,-15.89990081635756,-136.6292820630197,-60.13237890950087,-8.227322852880604,-134.2617253799796,4.782365462886478,-1.258085571092798,-6.49886299859902
1660172565028123,-74.06729228656445,-9.491111619745197,-153.3531700617989,-70.24903457204537,-23.8038487360184,-161.085336583689,3.739314155034108,-1.51433494380399,-8.861639494308369
1660172565044108,-6.317235065232353,-70.71030746929114,-152.6817730983444,-1.033705556182532,-55.95130381027538,-137.9456738602101,3.169052234008285,-2.15237616417434,-11.25388757785956
1660172565060093,104.7684443427179,-43.42717631799815,-52.09430075532168,92.12511434146465,-49.90260715243279,-61.46770631252704,3.897783504290541,-2.999207451876006,-12.84919461924146
1660172565076049,102.7542534523536,-18.95170519569683,-3.326466773479751,114.5927868181509,-20.28383360667347,1.019926520470735,5.551526713567466,-3.560698977948856,-13.33277685757791
1660172565092034,82.85648889906179,-18.64652475776302,11.38323033493543,79.34837428431038,-13.74466108935749,15.76831203629012,7.103056002387156,-3.832926935517103,-13.19847094912382
1660172565108019,47.33348592355219,-11.74944686045615,22.919050888838,41.70984576707365,-13.31015636341194,19.8206518050963,8.071521762798229,-4.049365475139258,-12.91375923839273
1660172565124004,-6.012054627298312,8.148317692835917,25.23842221713585,3.661195687120323,6.279575050802173,28.09747087761252,8.43449009443178,-4.105610125640137,-12.53041425693106
1660172565139989,-52.33844510566882,28.71747920958251,15.89990081635756,-58.28404535548798,32.97085152670705,19.67732781039409,7.997507297084839,-3.791606713020063,-12.14821586742701
1660172565155974,-115.8770122835126,58.68619821469429,8.636606393530201,-118.2627006437899,56.06502579090541,4.38021141998009,6.585133329090617,-3.079319694479163,-11.95575555358402
1660172565171960,-103.3646143282217,69.24544136720851,17.18165865568017,-94.61625896758349,70.33784166542991,24.17330372239652,4.88210165219963,-2.068096754828481,-11.727327432445
1660172565187945,24.75013351644157,65.33913176165424,85.54207675288035,16.69634583812121,66.60931220928038,83.85058196420252,4.258742347163932,-0.9725195238307989,-10.86313634695221
1660172565203930,88.71595330739319,48.73731593804814,127.7790493629359,91.60260630142675,47.43195142861847,128.5487217497199,5.125133964280316,-0.06018941472760808,-9.16394191724083
1660172565219915,61.86007476920713,23.16319523918514,116.4263370717936,63.17807654575022,24.61632200496282,119.6782269139224,6.363379427057732,0.5161967727410423,-7.178126327931692
1660172565235900,9.308003356984727,4.486152437628789,83.52788586251654,7.102560054020152,5.097170829692372,83.82703480304937,6.925624519855894,0.7539047154182839,-5.550084234195918
1660172565251885,-15.3505760280766,-3.021286335545938,58.68619821469429,-13.46512027068756,-4.582645759849333,58.88723986133737,6.874724038122555,0.7580209159770281,-4.408370036880823
1660172565267870,-17.18165865568017,-2.410925459678083,38.36118104829461,-18.18714149040604,-0.1829791168625071,41.96447674608168,6.621505944033807,0.7198959169633334,-3.601556304021471
1660172565283855,-22.43076218814372,3.814755474174035,9.063859006637585,-23.62471063922731,5.104003907608363,8.80638332862871,6.28701112699674,0.7592641152893003,-3.195389423423788
1660172565299840,-35.61455710688961,9.613183794918768,-41.77920195315482,-30.77027360412511,4.345978746087526,-41.78469977256672,5.85185125304992,0.8348639765188673,-3.459215954975292
1660172565315825,-54.10849164568549,4.242008087281647,-96.83375295643555,-60.87506798386766,12.08442556502147,-91.92009538657121,5.118688520345978,0.9663072110077393,-4.528854316248395
1660172565331810,-102.6321812771803,12.72602426184471,-136.8123903257801,-97.84990738489493,10.07441453701357,-137.5570067644896,3.848888717395877,1.14357793182402,-6.364671133456882
1660172565347795,-72.6024261844816,-26.27603570611109,-155.8556496528572,-72.59531690826714,-32.32758568612807,-159.0188409466755,2.485326923050581,0.9655525626311035,-8.737277915146203
1660172565363780,22.24765392538325,-82.49027237354085,-126.6193636987869,18.49292586030743,-68.6748633239789,-113.9074599718785,2.052507794666903,0.1575329705502477,-10.92068832249464
1660172565379765,76.99702449073038,-31.28099488822772,-18.40238040741588,82.12439257618365,-44.01495986997972,-30.39228734962026,2.857446342158831,-0.7439856150014212,-12.07508630106663
1660172565395691,70.58823529411802,-5.76791027695117,-2.716105897611897,66.4137084851036,0.7342360228973384,7.525830161841198,4.04575115064913,-1.09023140577808,-12.25801795856886
1660172565411676,27.31364919508655,8.575570305943302,-5.096513313496644,28.86969128562063,10.57530295994713,-7.042173773182067,4.808018348814923,-0.9997550939153245,-12.25414870745958
1660172565427661,14.55710688944828,13.03120469977875,-26.33707179369799,15.85144167624859,7.540499177487861,-24.75245474550028,5.165787412509877,-0.8548286768158446,-12.50850573560904
1660172565443646,-19.68413824673826,30.12130922407869,-39.15465018692316,-19.87390610478334,34.32694204432512,-37.95561035746412,5.133607697081599,-0.5198891470413407,-13.01017025643276
1660172565459631,-81.025406271458,66.07156481269567,-45.74654764629599,-86.81936009307621,69.50045665706897,-44.58562906328617,4.280061567498723,0.310730042569812,-13.67050017179876
1660172565475616,-92.37811856260009,68.69611657892756,-16.63233386739898,-80.67660902652655,58.68877030320216,-14.17911277852576,2.940093814541901,1.336243858251981,-14.14061810653326
1660172565491601,33.66140230411224,8.392462043183059,49.22560463874242,22.48250593800813,20.56279499293306,48.42916021015196,2.474540989833753,1.970256380621063,-13.86661772708025
1660172565507586,83.1616693369956,21.75936522468896,88.34973678187225,88.71014515437207,15.28773434467908,91.5101149752888,3.364082198572795,2.25706061532196,-12.74710352559672
1660172565523571,52.09430075532146,26.21499961852442,86.76279850461606,51.64494801791232,26.78714993123116,87.17165756852063,4.48692294395107,2.593659689529242,-11.31764934524625
1660172565539556,-0.5188067444876197,10.65079728389401,61.06660563057903,-1.561360434091586,13.4486916481018,61.96470023209267,4.887591644621636,2.915546422163906,-10.12455848284134
1660172565555541,-10.71183337148091,-3.082322423132609,45.68551155870887,-9.765298007730621,-4.199800723655674,47.66549080667377,4.796978377087058,2.989537549559475,-9.247516954531207
1660172565571526,-6.256198977645454,-6.317235065232353,30.18234531166536,-6.779485413671395,-5.861203914056765,32.42645904459262,4.664620109715842,2.909049512457775,-8.606781355721075
1660172565587511,-20.84382391088729,-2.105745021744042,-4.242008087281647,-21.12096203809669,-2.232891553286613,-6.946976526446144,4.441416530101697,2.844296748719028,-8.402945495575903
1660172565603496,-46.66208896009766,8.697642481116873,-63.20286869611664,-45.09101074091431,9.504206646786686,-56.69171384190953,3.911720747869609,2.902467269467029,-8.912055018522748
1660172565619481,-67.29228656443115,13.94674601358042,-95.61303120469984,-68.32675913547497,16.11074319120072,-96.59443240329689,3.004378588858494,3.107386868170928,-10.1383441884844
1660172565635466,-61.55489433127332,-10.22354467078662,-115.5718318455788,-64.31828203389165,-14.96833725345659,-117.91602284271,1.943218259503562,3.116526115672881,-11.85442783045245
1660172565651451,-17.66994735637445,-61.1886778057526,-103.9139391165027,-9.192375098026549,-55.75395898319891,-95.05976317885086,1.355133002448216,2.550747745779637,-13.55823411862494
1660172565667436,70.5271992065309,-53.07087815671025,-26.27603570611109,59.17928263608477,-53.72441240369569,-31.2560790732799,1.755028262752682,1.674920774684481,-14.56876085664199
1660172565683421,77.85152971694515,-26.03189135576395,10.10147249561305,86.79203454420234,-29.16123270764158,12.70473828625245,2.922798800194979,1.011835613793783,-14.71717158293821
1660172565699406,79.01121538109419,-23.16319523918514,6.439307240405924,75.84569929485107,-19.07007609022682,10.11119565083171,4.223900670907407,0.6259851434108353,-14.53464411144153
1660172565715332,50.69047074082528,-12.4208438239109,-3.448538948653322,50.00070609565736,-12.72689092489537,-4.586101627103164,5.230671914031474,0.3716094072898578,-14.4904433592517
1660172565731316,23.65148393987943,-2.471961547264755,-13.15327687495233,23.75463726677266,-3.396578012913939,-11.67315166432171,5.820714660930914,0.2426216557873833,-14.6205173855831
1660172565747301,-3.570611123826893,11.68841077286947,-19.43999389639112,-0.7095747230702978,10.44424622246084,-16.93411626407487,6.005075161280533,0.2990030014637585,-14.84937552901028
1660172565763285,-48.43213550011455,33.53933012893867,-23.52941176470586,-50.89326388571572,40.47996040083934,-22.99665860306706,5.592252452410245,0.7063966544501599,-15.16882172794741
1660172565779270,-108.0033569848174,65.70534828717518,-28.22919050888822,-111.14487234637,58.08795730007039,-27.30060331597438,4.295947362553559,1.494939996057438,-15.57119982329974
1660172565795254,-101.8997482261389,39.82604715037746,-13.03120469977875,-92.58879633405492,42.92816567554344,-11.84153776799513,2.666078013110159,2.303068979862348,-15.8843369519715
1660172565811239,12.29877164873733,39.52086671244365,30.30441748683893,3.096295001857925,44.14381950805834,33.62405204939299,1.950138002452583,2.999644861331162,-15.71007683772032
1660172565827223,51.85015640497431,77.79049362935848,73.94522011139088,55.28290254081766,71.51809076164403,71.97720573444417,2.417171582793987,3.924940143488781,-14.86526677544962
1660172565843208,28.10711833371465,61.67696650644666,65.58327611200139,29.83284594852243,64.83177407192846,68.79478732208504,3.098097570708708,5.015739062157361,-13.73909083099739
1660172565859192,5.096513313496644,22.30869001297015,46.23483634699005,3.471675289976681,24.51489939253143,48.10804659330614,3.364533740616701,5.73051244987304,-12.80386815967426
1660172565875177,6.805523765926637,5.76791027695117,41.65712977798103,5.307284798131064,3.199928261236898,41.03633800646897,3.434765421321563,5.952231071103187,-12.09071308287606
1660172565891162,2.471961547264755,3.021286335545938,38.72739757381532,5.881415064188813,3.734290935865336,41.10900112859116,3.524275020220122,6.007704824680005,-11.43355036979557
1660172565907146,-3.265430685893079,-1.373311970702616,35.0652323186082,-4.705513612867496,0.9283138049912515,36.72604041833958,3.533682231830692,6.045005662606857,-10.81087003742013
1660172565923131,-6.073090714885211,-11.87151903562972,31.70824750133511,-8.800219439296557,-13.25712066128733,32.15711578591275,3.42563636741338,5.946375207756488,-10.25980478778611
1660172565939115,-1.922636758983799,-34.14969100480675,35.91973754482319,3.067171244043081,-34.32587106859654,36.7997912466126,3.379771981851352,5.565711273917417,-9.708149531525908
1660172565955100,9.063859006637585,-51.6060120546274,44.34271763179959,8.254721812106339,-49.97637545083539,47.50376916160357,3.470347126300547,4.891293301761961,-9.03372104826018
1660172565971084,9.796292057679011,-67.35332265201805,36.46906233310438,1.587111736315428,-65.5651502242669,36.37038424506966,3.549081794687921,3.966961096361143,-8.362727821006795
1660172565987069,-10.65079728389401,-85.78622110322726,-13.39742122529947,2.000768664148862,-91.08925855821076,-14.11006077047161,3.577784837891636,2.713725826101322,-8.184645233210011
1660172566003053,-28.16815442130155,-101.8997482261389,-85.17586022735941,-28.73889417995704,-96.33459705366799,-77.92314455808378,3.363879833765171,1.214334981206292,-8.920910875838453
1660172566019038,-49.40871290150312,-76.69184405279611,-112.0317387655452,-76.82506252915806,-73.52065970624136,-117.9106084244799,2.51936818009225,-0.1445070728729834,-10.48758089969896
1660172566035003,-63.81322957198449,-54.23056382085906,-114.7173266193638,-10.63776723361896,-68.10919550105417,-109.401010605902,1.819665541990033,-1.277545914531347,-12.30607385194202
1660172566050988,182.1011673151747,-91.21843289845106,-50.99565117875954,127.3728714758506,-71.13880534171517,-48.7868236257106,2.753546375927886,-2.391529921273502,-13.57157652579492
1660172566066972,108.1254291599907,-25.05531395437538,18.28030823224231,138.7044928861011,-39.97808695544784,16.00281561298577,4.8821652908235,-3.280465059650806,-13.83384858989672
1660172566082957,55.93957427328905,-11.32219424734876,25.72671091783013,54.63245435141891,-5.775076223695351,28.92759494533405,6.42886086872366,-3.646490365083952,-13.47440530543016
1660172566098941,34.33279926756677,-5.584802014190927,1.129167620355474,23.07400993682345,-3.317057779500071,4.028721804442575,7.050512583029599,-3.719227437109515,-13.21075477143194
1660172566114926,15.96093690394446,-3.082322423132609,-10.16250858319972,20.96427001603562,-5.121654921210558,-12.45433672052754,7.402818822652471,-3.7867371387152,-13.27815969076062
1660172566130910,-19.80621042191183,14.37399862668804,-17.60891126878755,-13.86488183368472,13.30316031179154,-14.10106098340157,7.459613928111279,-3.721285095590552,-13.49060287239206
1660172566146895,-79.86572060730896,47.88281071183314,-22.67490653849086,-86.54224745591814,52.01111482791084,-19.89573945323573,6.656356893794456,-3.198770894472933,-13.76257727588516
1660172566162880,-162.2034027618831,92.25604638742652,-21.57625696192872,-166.0469335719917,90.59348030993937,-25.49633396082181,4.635643445571177,-2.057934133370131,-14.12571386319762
1660172566178864,-158.7853818570231,90.91325246051747,-3.143358510719509,-144.3226977585465,88.99124488881813,4.104112832409838,2.152686394926871,-0.6212563317800714,-14.29685163222491
1660172566194849,16.63233386739898,43.48821240558459,78.76707103074705,2.501464982629223,48.41647266982618,76.90448903454767,1.018116532719533,0.478005408689083,-13.64878281728925
1660172566210833,108.979934386206,16.9985503929197,138.3993286030363,113.7502998237216,14.05975625585116,138.8438065619752,1.948130651170339,0.9778152400945017,-11.92279645251707
1660172566226818,97.07789730678269,-1.434348058289515,141.6342412451363,100.9753964671716,-1.23137106682533,145.5339755437157,3.665936221497485,1.080442321606708,-9.647774195671541
1660172566242802,57.03822384985097,-17.60891126878755,118.5626001373312,51.47303948108073,-14.57672788101289,118.3557484213854,4.885523709083504,0.9539775300240025,-7.536656403950733
1660172566258787,25.29945830472252,-18.34134431982898,95.06370641641888,27.80391670623278,-21.15056695238518,95.39603341350316,5.519739358582012,0.668159171356818,-5.826642149271625
1660172566274771,8.392462043183059,-8.636606393530201,75.83733882658134,9.466084008168821,-7.076234830688337,79.4668320977112,5.817899364297225,0.4423447570922299,-4.42773922518191
1660172566290756,-8.819714656290444,9.063859006637585,43.97650110627887,-11.24580738648144,11.2228269104231,43.62294494769719,5.803661577270724,0.475517493730108,-3.443021008818643
1660172566306740,-24.56702525368109,9.918364232852582,-26.21499961852442,-23.04517942589772,6.590014542605182,-25.13952712892289,5.52933368277169,0.6180202253543342,-3.295153666268448
1660172566322725,-40.68055237659269,-11.20012207217519,-97.74929427023744,-39.94246641908391,-9.265252037311832,-96.31891207724118,5.025432516011837,0.596618325396681,-4.266821179917761
1660172566338709,-69.97787441824971,-19.74517433432516,-141.4511329823758,-71.04350903223475,-15.90833907512794,-136.5516472065163,4.137544712401288,0.3952295964971629,-6.12978565418782
1660172566354675,-62.9587243457695,-26.39810788128466,-131.0749980926223,-66.13474719569335,-33.287377276863,-139.1327292954461,3.040118662577863,0.001663865681235388,-8.335260666203521
1660172566370659,-1.739528496223329,-65.40016784924092,-111.0551613641567,9.074284071856651,-59.66975393480289,-97.40315236503673,2.58363495758717,-0.7419931840120917,-10.22754771948738
1660172566386644,89.32631418326082,-49.10353246356908,-19.62310215915159,73.9096738503317,-48.32826966724132,-28.35068665857428,3.247506620964677,-1.605977372828445,-11.23357843167627
1660172566402629,39.64293888761722,-1.8616006713969,7.660028992141633,52.80112665459892,-6.637135790372318,13.19441912996037,4.261193025004122,-2.045700616489355,-11.35482857190518
1660172566418613,13.33638513771257,4.974441138323073,12.11566338597686,6.970059796349216,10.43767802523146,13.51769419838124,4.739362516611707,-2.015296278610482,-11.14113166527845
1660172566434598,1.312275883115944,5.218585488670215,5.340657663843785,1.627616587198208,3.526671610636789,5.46570856387193,4.808143927680087,-1.903581481523535,-10.98926444318042
1660172566450582,-13.33638513771257,9.430075532158298,-9.552147707331869,-9.458104751641292,8.474678722159576,-7.423172310874969,4.745500022364542,-1.807570678861165,-11.00492415315645
1660172566466567,-46.54001678492409,21.08796826123444,-22.24765392538325,-53.16627484762309,24.56045189442419,-22.65227110930563,4.244504985570427,-1.543289633928494,-11.24552770051789
1660172566482551,-63.99633783474474,35.61455710688938,-2.655069810025225,-56.91370218152392,32.25759882328621,1.499855812159534,3.363865169337251,-1.088745228186811,-11.41474702289506
1660172566498536,14.37399862668804,25.54360265506966,69.55062180514233,10.63451909555871,28.930860188326,68.43072375938718,2.993631704649529,-0.5992375560939134,-10.85530238632269
1660172566514520,67.84161135271233,21.08796826123444,116.1211566338598,67.07821274198378,19.76656865866647,117.7629667609924,3.615333559349869,-0.2096581253179737,-9.365752862159651
1660172566530505,53.13191424429669,5.279621576256886,117.2198062104221,56.10308908623405,5.517176887068816,119.3951569422373,4.600783973975612,-0.007388160952091383,-7.468487872533814
1660172566546489,26.45914396887156,-12.11566338597686,99.70244907301458,24.41933598537269,-10.45786488077147,100.6050131562746,5.244963374548465,-0.04691366490171264,-5.708486511745718
1660172566562474,15.10643167772946,-16.44922560463874,82.97856107423513,15.60964025909766,-17.81647097976257,83.56960110119263,5.565195184504228,-0.273108351785985,-4.23508959768598
1660172566578458,10.95597772182805,-10.65079728389401,65.27809567406757,11.4719609556986,-9.327759077736786,66.98642977350984,5.781847994222598,-0.4902621922459798,-3.03064135068836
1660172566594443,-4.974441138323073,6.561379415579495,37.50667582207961,-6.006728054167079,7.084608950359067,39.96516705858198,5.825569857434851,-0.5082073932650016,-2.175028576031626
1660172566610427,-28.77851529716941,16.08300907911803,-8.026245517662346,-27.15813979617917,15.49194256751105,-9.03999461329872,5.560250914632081,-0.3275949811220407,-1.92762719646936
1660172566626412,-42.99992370489053,12.72602426184471,-67.10917830167091,-44.401938099258,13.19920236177541,-64.85650064397468,4.987770291468584,-0.09806582168774905,-2.518799158527547
1660172566642397,-56.36682688639667,1.617456321049758,-103.5477225909819,-56.31000023104551,3.416533184540254,-100.5598634001463,4.182074784826156,0.03486006268277625,-3.842130070880515
1660172566658381,-55.93957427328905,-19.9893186846723,-119.4781414511331,-53.50019465681911,-21.69324968724287,-120.2893929477505,3.303593225723239,-0.1113536693388447,-5.608924121663689
1660172566674347,-18.70756084534969,-51.36186770428026,-118.1963836118105,-23.20623024136009,-50.89504706128318,-119.14360998366,2.689941826537805,-0.6920600433270531,-7.524388145114973
1660172566690331,24.26184481574728,-49.65285725185026,-76.3866636148623,28.80987763095119,-46.59330959918825,-66.62833392389993,2.734771005654534,-1.471966896610824,-9.010563696375453
1660172566706315,63.38597695887711,-4.60822461280236,18.58548867017612,62.06930117122839,-8.313843181867476,8.509486228477726,3.461804436071971,-1.91122411885927,-9.47551447793883
1660172566722299,49.83596551461051,16.2050812542916,28.53437094682226,46.84715538006007,19.332037531936,38.599408976899,4.333136088482279,-1.823078564058722,-9.098643316295817
1660172566738283,14.61814297703518,17.91409170672159,29.38887617303726,19.22866875742636,17.59418668917425,26.5357169366786,4.86174268158217,-1.52766877028984,-8.577562308987197
1660172566754267,12.97016861219186,10.10147249561305,8.270389868009488,11.25796396235577,9.680976593745404,10.85965896972462,5.105635743340427,-1.309467464026483,-8.278399301735972
1660172566770251,-10.77286945906758,15.53368429083685,-7.782101167315204,-12.54522025567384,16.58096800876623,-7.231356863098129,5.095337692993883,-1.09937190720639,-8.249372884882959
1660172566786235,-53.07087815671025,33.96658274204606,-18.52445258258945,-51.38874948561999,34.30631406877956,-17.0668125013675,4.583865935063532,-0.6922736505860234,-8.443758239798685
1660172566802219,-36.83527885862532,42.57267109178292,10.83390554665448,-35.29077036744205,42.45735672897941,13.15438849002971,3.890429776239035,-0.07816428420395161,-8.475057631889387
1660172566818203,35.12626840619509,29.26680399786369,66.86503395132377,32.12658460834579,29.44699929405926,66.42989216367511,3.865116290166265,0.4970705639803578,-7.838383386659748
1660172566834187,65.70534828717518,4.42511635004189,89.1432059205008,66.75639503400603,5.829996732326027,91.41061386636652,4.65618012730508,0.7792865321914401,-6.575659338419415
1660172566850171,45.44136720836173,-11.505302510109,79.74364843213561,47.27966980575114,-12.4363926577909,81.20283128861547,5.568468646023137,0.7264353647877211,-5.194751777179559
1660172566866155,19.0737773708704,-15.77782864118399,66.74296177615042,16.74646120531345,-15.36818396624578,67.09340777291348,6.080677694111654,0.5039987517954276,-4.008381864687328
1660172566882139,-6.378271152819025,-3.265430685893079,56.00061036087573,-5.486418873439086,-1.537855438434125,58.39984183888237,6.170758032766649,0.3687504365579884,-3.004435867792961
1660172566898123,-20.41657129777968,15.83886472877089,43.8544289311053,-19.88597301848678,14.5595889260514,44.4498394852896,5.967778897631242,0.4729243044589266,-2.181638417199586
1660172566914107,-24.50598916609442,20.11139085984587,30.30441748683893,-24.8822553761263,20.32012103905044,30.65514618014491,5.609633070474338,0.7519619841797414,-1.58079853187611
1660172566930091,-24.20080872816038,14.49607080186161,15.83886472877089,-24.3258099537166,16.7087666320856,20.10808739940463,5.215968547835595,1.04819308554883,-1.174692663239713
1660172566946076,-15.53368429083685,-1.739528496223329,-7.415884641794491,-15.83643833025715,-2.602510342361519,-9.424786074167617,4.894670561563805,1.161043135866622,-1.089226252637817
1660172566962060,-9.185931181811156,-26.58121614404513,-59.72381170366975,-7.961288015184136,-28.25522650718681,-58.19642651707819,4.704288750800274,0.9141812410702358,-1.630195953367783
1660172566978044,-31.40306706340129,-26.09292744335085,-94.94163424124531,-30.12271571541277,-22.31779577941136,-89.56701076143484,4.399616720955499,0.5095970627774505,-2.812303451595888
1660172566993988,-47.51659418631266,0.3967345693140487,-88.22766460669868,-56.68541376164857,1.561948669607009,-92.62656197106017,3.705151685139008,0.3435502858990158,-4.269852033455848
1660172567009972,-41.9012741283284,-0.03051804379333589,-82.00198367284656,-23.2579597528166,-8.840386582021736,-78.16801803037939,3.065604697023287,0.285322782599698,-5.636208673467364
1660172567025956,55.75646601052858,-40.43640802624554,-41.65712977798125,34.33581349652798,-25.86244008447695,-37.83548849608897,3.154227526972978,0.00770016926770839,-6.564236725679112
1660172567041940,18.15823605706873,13.15327687495233,16.1440451667047,32.91358017912325,1.810715990959418,12.04092463094815,3.692222676378188,-0.1847136234804319,-6.770593236600238
1660172567057924,4.180971999694748,31.2809948882275,19.68413824673826,0.1888212101701736,35.82113508352077,25.41739546728186,3.957041887492535,0.1163411851154096,-6.470926675814398
1660172567073908,3.326466773479751,31.64721141374821,4.913405050736174,0.7337652369980292,33.52185833089179,4.3572314382274,3.964422579069881,0.67108513243071,-6.232729660570324
1660172567089892,14.06881818875399,23.10215915159824,-12.54291599908447,16.54478457418334,20.86467612709383,-11.6717662748077,4.102650977559332,1.106177408094595,-6.291245939262966
1660172567105876,1.739528496223329,20.90485999847397,-22.36972610055682,3.30313536456512,21.76569652647304,-19.2598043249032,4.26143433706932,1.44722038932313,-6.538698504060653
1660172567121860,-36.77424277103842,30.24338139925226,-32.07446402685605,-40.97857926069361,31.64866675258676,-33.32187827306601,3.960030785900292,1.874535295555608,-6.959351964844407
1660172567137844,-73.15175097276256,41.65712977798103,-37.99496452277413,-70.26946844154968,41.12058031347658,-34.90170563665303,3.070046404282345,2.456689272084115,-7.505140636122159
1660172567153828,-35.85870145723675,33.78347447928581,-4.730296787975931,-34.67793147988489,33.75583973475968,-3.350030386034853,2.230467204910869,3.055700632470005,-7.811154524303662
1660172567169812,42.51163500419602,4.730296787975931,36.46906233310438,38.84560734008173,5.979738481297789,36.14262586017097,2.263808611792443,3.373585258198465,-7.548813760510573
1660172567185796,71.19859616998565,-18.64652475776302,48.493171587701,74.11964046438602,-18.89640229422579,50.95592372260748,3.167530594228186,3.270251947695041,-6.852025363848345
1660172567201780,56.61097123674335,-26.33707179369799,45.99069199664291,56.30844429248283,-26.1844201664004,47.76076203315592,4.210955272283137,2.909605368010031,-6.062291877802238
1660172567217764,29.6330205233844,-26.21499961852442,47.21141374837862,28.13623276585089,-25.01989263498655,46.87339923430871,4.886512688749806,2.499970865598936,-5.305218587662521
1660172567233749,9.124895094224485,-18.09719996948184,49.2866407263291,11.00792368437601,-19.3320154880968,51.51899119631231,5.199665940351622,2.145155600614269,-4.518079464217553
1660172567249733,-1.739528496223329,-6.683451590753066,46.05172808422958,-2.48856649195265,-4.765180649380042,48.17650004452768,5.267820797891009,1.952378031514455,-3.720515534290834
1660172567265717,-11.93255512321662,5.95101853971164,16.9985503929197,-12.9540528392136,5.945723581101813,16.21713933820519,5.144279843241679,1.961822374968229,-3.20536641922897
1660172567281701,-19.86724650949873,2.227817196917613,-44.52582589456028,-17.31080110576669,0.967427119750685,-41.75870613102361,4.902161011681837,2.017127580575049,-3.409698953571518
1660172567297685,-27.98504615854108,-5.95101853971164,-94.08712901503031,-30.42456465354741,-3.962315174863087,-93.05975979375391,4.520278085607324,1.993168476134149,-4.488246680969738
1660172567313659,-56.61097123674381,-9.369039444571627,-119.6002136263066,-55.01752070425167,-7.735464743246444,-117.830870222297,3.836741402744932,1.899586236789273,-6.175371721098145
1660172567329643,-47.02830548561838,-29.20576791027679,-112.6420996414131,-49.10993348750159,-33.87482243038261,-114.2927320843676,3.003721769210905,1.566703939400241,-8.032360539551462
