Timestamp (microseconds),Accel X (g),Accel Y (g),Accel Z (g),vel x (m/s),vel y (m/s),vel z (m/s),disp x (m),disp y (m),disp z (m)
1660172557083923,0.07281605249103507,0.8642099641412981,0.4586861982146946,0,0,0,-0.006393783311184219,0.00244697932955487,-0.5606307575429672
1660172557099919,0.07049668116273722,0.8791027695124747,0.4599069199664303,-0.0004257491112657952,-1.162298464500101e-05,-0.0003534261990764653,-0.006236226453070457,0.002198413970014957,-0.5602794253437187
1660172557115916,0.06744487678339794,0.8843518730449382,0.4519722285801482,-0.001520646158044532,-2.535806928843989e-05,-0.001295709464101927,-0.006064736212189276,0.002230183601408817,-0.5599291420971606
1660172557131912,0.05242999923704872,0.8845960173952854,0.4431830319676511,-0.003187272007168198,-6.486311429108741e-05,-0.002642332085615878,-0.005875512906036646,0.002340101623356566,-0.5595896758801613
1660172557147909,0.06036469062333083,0.8847180895704589,0.4546578164339667,-0.005279409360109913,-0.0001379742289634411,-0.004146676402084143,-0.005666699392701414,0.002325099236400485,-0.5592688151761944
1660172557163905,0.08111696040283789,0.8771496147096975,0.4738231479362174,-0.007620717698184074,-0.0002625542193465466,-0.005521218789283768,-0.005438752715903413,0.002243260879029533,-0.5589718653958637
1660172557179902,0.06756694895857152,0.8727550164034481,0.4562447547112232,-0.01002578971846135,-0.0004565709851660813,-0.006507129557635043,-0.005194563180227233,0.00207197305992935,-0.5587011921666285
1660172557195898,0.0689097428854808,0.8664072632944224,0.456000610360876,-0.01232096276335194,-0.0007611444287223632,-0.006890883061703391,-0.004939319796656528,0.001890213352014534,-0.558456327385834
1660172557211895,0.09234760051880642,0.8771496147096975,0.4838330663004502,-0.01436305724181473,-0.001278185751911314,-0.006499518225809339,-0.004680748970961353,0.001744554052444043,-0.5582342887003001
1660172557227891,0.08563363088426001,0.8827649347676818,0.4867627985046159,-0.01605680641533109,-0.002114098622919469,-0.005279978748361736,-0.004428925797307033,0.001681546438842793,-0.5580301991916862
1660172557243888,0.06915388723582794,0.8617685206378267,0.4726024261844817,-0.01737179893446493,-0.003286192115678784,-0.003366929383995553,-0.004194458515550416,0.001693599353554784,-0.557838116766981
1660172557259884,0.06060883497367797,0.8609140154116117,0.4721141374837874,-0.01835240915464431,-0.004728610172527119,-0.001019848862589906,-0.003986046068774379,0.001641492814922628,-0.5576521200830873
1660172557275880,0.05877775234607441,0.8521248187991146,0.4728465705348288,-0.01911352998688449,-0.006344228557864242,0.001482924835979206,-0.003809111551596529,0.00146190541140445,-0.5574676036064967
1660172557291877,0.0613412680247194,0.8522468909742882,0.4724803540093081,-0.01982155660704021,-0.00801162262055255,0.003897576201466248,-0.003665480480797974,0.001196825644719687,-0.5572822146725595
1660172557307873,0.0794079499504079,0.8581063553826196,0.4857862211032273,-0.02066340208891337,-0.009592479737165368,0.006031971812657672,-0.003553440453881178,0.0009285975752523355,-0.5570965092721805
1660172557323870,0.08331425955596217,0.8703135728999767,0.487006942854963,-0.02180976471568767,-0.01095323940759117,0.007734757459945742,-0.003468026713091695,0.0007542623427942885,-0.5569140865247297
1660172557339866,0.06549172198062081,0.8715342946517124,0.4634470130464639,-0.02338049655706284,-0.01197741978413376,0.008881997480700005,-0.003401445610303323,0.0007346840874322799,-0.5567409059423589
1660172557355863,0.06683451590753009,0.8726329442282745,0.4633249408712903,-0.02541882261290352,-0.0126060788040417,0.009408022689961415,-0.00334393342952406,0.0008582374888096624,-0.5565840158533804
1660172557371859,0.08062867170214361,0.8856946669718475,0.4757763027389945,-0.02788058398737306,-0.01286882547174747,0.009327027639052118,-0.003285319958038429,0.000985883843502781,-0.556450106449813
1660172557387856,0.06536964980544724,0.883009079118029,0.4646677347981996,-0.03064028113326541,-0.01283661553466965,0.008702490128836976,-0.003216443885765181,0.001074949453571805,-0.556344758720558
1660172557403839,0.06390478370336439,0.8781261921110861,0.4533150225070575,-0.03351190508079256,-0.01258597339601738,0.007650163709795289,-0.003129883032469867,0.001151329016179642,-0.5562712062305954
1660172557419835,0.08294804303044145,0.8828870069428554,0.4699168383306631,-0.03628208011219208,-0.01223627632845687,0.006378406403283219,-0.003020868503080643,0.001237439958934548,-0.5562294674255698
1660172557435832,0.08917372396429357,0.8928969253070882,0.4751659418631267,-0.03874955282765058,-0.01194782377380818,0.005143699756335314,-0.00288842748648427,0.001312137358476299,-0.5562161587371204
1660172557451828,0.06585793850614152,0.8788586251621275,0.4527046616311896,-0.04076341998054655,-0.01185438025470868,0.004148477631285463,-0.002735459124845867,0.001350511466793041,-0.5562250834708896
1660172557467825,0.05352864881361086,0.8744640268558781,0.4469672693980318,-0.04225349282538363,-0.01204107944438353,0.003523727174121714,-0.002567712080061066,0.001326847299073519,-0.5562482839381649
1660172557483821,0.05987640192263655,0.8616464484626531,0.4567330434119174,-0.043244916354676,-0.01256832952015568,0.003377083328036347,-0.002392897753865648,0.001270165292988418,-0.556277517179031
1660172557499817,0.06964217593652222,0.8584725719081403,0.4790722514686809,-0.04385217051485119,-0.01345667520586814,0.003788110606756918,-0.002220037990453414,0.001233761390514272,-0.55630568625211
1660172557515814,0.07598992904554791,0.8559090562294953,0.487006942854963,-0.04425490803325901,-0.01464722621970346,0.004751692608710811,-0.002058188560134399,0.001219061518507519,-0.5563279674319045
1660172557531810,0.07159533073929936,0.8582284275577932,0.4800488288700695,-0.0446615789273726,-0.01600803484387618,0.006150049363890108,-0.001914594283108706,0.001214439818029214,-0.5563426213259468
1660172557547807,0.06353856717784367,0.8635996032654303,0.4667429617761503,-0.04526760466604124,-0.01738080985742864,0.007776912972308174,-0.001793196552229805,0.001215136549670152,-0.5563511512905011
1660172557563803,0.04974441138323016,0.8675059128709846,0.4581979095140003,-0.04621612981120456,-0.0186130770779608,0.009389279394329066,-0.001693990661932425,0.001224123614489626,-0.5563577809054433
1660172557579800,0.05572594796673513,0.8692149233234145,0.4553902494850082,-0.04756930464240864,-0.01958609085835094,0.010782065635453,-0.001613304529418098,0.001219281949474369,-0.5563683481701639
1660172557595796,0.07916380560006075,0.8771496147096975,0.4774853131914245,-0.04929771253225598,-0.02026791574051025,0.01186086389612864,-0.001545227803144235,0.001233773573277504,-0.5563890181783137
1660172557611793,0.09796292057679068,0.8889906157015339,0.4872510872053102,-0.05129345261010866,-0.02071307393947242,0.01262862624753871,-0.00148364380210718,0.00126056392557055,-0.556424809907312
1660172557627789,0.07904173342488718,0.882154573891814,0.4732127870603495,-0.05340406610420521,-0.02097168002080848,0.0130961056130126,-0.001423217929989639,0.001295496262501939,-0.55647866390561
1660172557643786,0.06988632028686936,0.8721446555275802,0.4536812390325782,-0.05547677446347919,-0.02105606304643322,0.01326301447191296,-0.001359091762077212,0.001334368977262708,-0.5565510801039546
1660172557659782,0.07550164034485363,0.8784924086366068,0.467109178301671,-0.05740096759652109,-0.0210107995271912,0.01317656302483152,-0.001286989942281097,0.001372982560054022,-0.5566404525263449
1660172557675778,0.07049668116273722,0.8819104295414668,0.462836652170596,-0.05913669697170893,-0.02091883626985246,0.01291865784799205,-0.001204037738969832,0.001410048996244,-0.5567439741116867
1660172557691775,0.05731288624399156,0.8650644693675131,0.4425726710917832,-0.06071922693518242,-0.02083393929066151,0.01255367081117979,-0.001108893026776795,0.001442932962566971,-0.5568587992466515
1660172557707771,0.06170748455024011,0.8581063553826196,0.4536812390325782,-0.06223801588327526,-0.02079244982033248,0.01216692274110527,-0.001001436884106507,0.00146362267782367,-0.5569830760669253
1660172557723755,0.07745479514763076,0.8694590676737617,0.4727244983596552,-0.06379782558881988,-0.02085664597739193,0.01190183262196796,-0.0008831487498512094,0.001468102188262974,-0.557116509798797
1660172557739751,0.08331425955596217,0.8759288929579618,0.4818799114976731,-0.06547593126439005,-0.0210690659801061,0.01187655323047366,-0.0007572808593933359,0.0014639250293531,-0.557260269408784
1660172557755747,0.07244983596551435,0.8871595330739304,0.4632028686961167,-0.06729100979100185,-0.02141249445675922,0.0120958035829015,-0.0006277530405815518,0.001462724038295406,-0.5574162933252149
1660172557771744,0.06793316548409223,0.8855725947966739,0.457709620813306,-0.0691939885573109,-0.02186360709456353,0.01247559408730163,-0.0004978882498301168,0.0014729379784695,-0.5575862744202418
1660172557787740,0.06646829938200938,0.8858167391470211,0.4590524147402153,-0.0710830208619882,-0.02243600319201774,0.01292365209278264,-0.0003702384700992028,0.001499090308070638,-0.5577706956942279
1660172557803737,0.06781109330891866,0.8783703364614333,0.4623483634699017,-0.07283729826984318,-0.02315768055252843,0.01339938704871875,-0.0002471141801141146,0.001539572876453529,-0.5579682552522691
1660172557819733,0.08844129091325215,0.8649423971923396,0.4876173037308309,-0.07435841765095455,-0.02404711374651433,0.0139138701148389,-0.0001310317785079843,0.001586527927497007,-0.558175895579111
1660172557835730,0.08746471351186358,0.8687266346227203,0.4874952315556573,-0.0756060490607279,-0.02508895177067022,0.01445505677812185,-2.452771718355732e-05,0.001629347874062769,-0.5583894516681913
1660172557851726,0.05938811322194226,0.8567635614557103,0.4584420538643474,-0.07661572816044918,-0.02620423661022778,0.01493410880369623,7.091591280500395e-05,0.00165681258331789,-0.5586047241436786
1660172557867723,0.04669260700389088,0.8595712214847024,0.4496528572518503,-0.077491099860442,-0.02727816586919737,0.01524852266099922,0.0001559221026758656,0.00166170041985684,-0.5588186299376805
1660172557883719,0.05059891660944515,0.8694590676737617,0.4581979095140003,-0.07837313531625088,-0.02821842988056636,0.01537249103489224,0.0002330593823354188,0.001646884765883455,-0.5590300428080119
1660172557899716,0.06256198977645511,0.8728770885786217,0.4607614251926453,-0.07939755901979484,-0.02896034863926071,0.01535735015647715,0.0003058794849344455,0.001623746828249841,-0.5592400480872819
1660172557915712,0.07000839246204293,0.8780041199359125,0.463691157396811,-0.08065379043816807,-0.02945578207147074,0.01528535547038377,0.0003781794831821588,0.001604708513905947,-0.5594515301393974
1660172557931708,0.08282597085526788,0.8814221408407725,0.4694285496299688,-0.08215851765696033,-0.02969881349552304,0.01523971603624482,0.0004534676114617941,0.001598234251641976,-0.5596682198299986
1660172557947705,0.09173723964293856,0.8816662851911197,0.4735790035858702,-0.08385334890308002,-0.02974085359007747,0.01527156056623633,0.0005343984677795586,0.001608651574110242,-0.5598935122236418
1660172557963701,0.0814831769283586,0.8766613260090033,0.4706492713817045,-0.08562712520764899,-0.02967123529651196,0.01537408091777065,0.000622473484666868,0.001637497555338734,-0.5601294448048608
1660172557979698,0.07367055771725006,0.8777599755855654,0.4695506218051424,-0.0873546189730024,-0.02959557644263635,0.01550283020548393,0.0007180478587118396,0.001682970684196404,-0.5603761644609626
1660172557995694,0.07440299076829149,0.877882047760739,0.4622262912947281,-0.08893847314435319,-0.02961125094942529,0.01561860041669797,0.000820404494419675,0.001741854395215289,-0.5606320388862399
1660172558011691,0.06024261844815726,0.8743419546807045,0.4503852903028918,-0.09034073850251365,-0.02977767576076811,0.01571356218968679,0.0009279275556467558,0.00181357490307794,-0.5608943523788498
1660172558027687,0.06060883497367797,0.865674830243381,0.4530708781567103,-0.09159395780490837,-0.03010779929990919,0.01581731801000818,0.001038411972992945,0.001894322079548458,-0.5611603485082385
1660172558043426,0.06866559853513365,0.8677500572213317,0.4680857557030595,-0.09278867261562611,-0.03057570072504744,0.01597948906032166,0.001149424645248013,0.001969356948538134,-0.5614282723129014
1660172558059422,0.06683451590753009,0.8651865415426867,0.469672693980316,-0.09404199671512278,-0.03111891332344855,0.01623537735292444,0.001258803877281355,0.002023396506783663,-0.5616980443933161
1660172558075417,0.0747692072938122,0.8686045624475467,0.4723582818341345,-0.09545745424586854,-0.0316511876232029,0.01658918337249667,0.001365258812388967,0.002052675733544071,-0.5619713436913795
1660172558091413,0.07830930037384576,0.879591058213169,0.4712596322575724,-0.09708856285115905,-0.0320998571499044,0.01702466483457815,0.001468646149968595,0.002059026574331871,-0.5622510973635433
1660172558107408,0.07574578469520077,0.8815442130159461,0.4655222400244146,-0.09891758403123503,-0.0324393597689679,0.01751095165936831,0.001569689967477011,0.0020470843596021,-0.5625405116327843
1660172558123404,0.07891966124971361,0.8791027695124747,0.4699168383306631,-0.1008560567733301,-0.03269050207224852,0.01799250323607366,0.001669491403647932,0.002030730248959287,-0.5628419231970728
1660172558139399,0.06353856717784367,0.8771496147096975,0.4531929503318839,-0.1027668272450481,-0.03290126351433079,0.01840500648397342,0.001769153057765556,0.00202366604433978,-0.5631558600724698
1660172558155395,0.07147325856412579,0.8780041199359125,0.4623483634699017,-0.1045018990964974,-0.03313850041200612,0.01872902734483088,0.001869315657703056,0.002025132102046406,-0.5634805935429715
1660172558171390,0.09210345616845927,0.8917982757305261,0.4816357671473259,-0.1059472911699155,-0.03346856034805077,0.01900039154804484,0.001969630326417182,0.002028442409398399,-0.5638123113977005
1660172558187386,0.0823376821545736,0.8789806973373011,0.4726024261844817,-0.1070630989275774,-0.03390525961478562,0.01923773814792029,0.00206897374665821,0.002032968560654259,-0.5641459602827694
1660172558203381,0.06353856717784367,0.8607919432364382,0.4546578164339667,-0.107904894941361,-0.03438693090839324,0.01939744043767131,0.002166652806955793,0.00203728309645562,-0.5644766142845828
1660172558219377,0.05450522621499942,0.8518806744487675,0.451728084229801,-0.1086157807789438,-0.034828389594444,0.01943214777788834,0.002263354425840513,0.002034567060942232,-0.5648009488954604
1660172558235372,0.05731288624399156,0.8516365300984203,0.4579537651636532,-0.1093882830123415,-0.03517905982122187,0.01935457257197349,0.002360843445309269,0.002022461950552753,-0.565118316261909
1660172558251368,0.06231784542610797,0.8660410467689017,0.4595407034409096,-0.1104063060850455,-0.03542618541497171,0.01922060169907156,0.002461048085538798,0.002005655468599983,-0.5654310651155753
1660172558267363,0.06500343327992653,0.8809338521400782,0.4575875486381324,-0.1117852587977192,-0.03558113043165002,0.01909012957322907,0.002565442317506177,0.001986880468038858,-0.5657439441963841
1660172558283359,0.08807507438773143,0.8950942244602125,0.4751659418631267,-0.113531876105118,-0.03567976265172845,0.01901105872014439,0.002674741113460042,0.001965841340768529,-0.5660626882785887
1660172558299354,0.1037003128099485,0.8987563897154196,0.4874952315556573,-0.1155401012015023,-0.03576586127351579,0.01898353157525372,0.002788914987052517,0.001944454244815667,-0.5663922336183893
1660172558315350,0.0831921873807886,0.8899671931029225,0.4716258487830931,-0.1176252664590645,-0.03586368853861907,0.01892946392223563,0.002907774387358046,0.001925151925856322,-0.5667351888853819
1660172558331345,0.06268406195162868,0.8736095216296631,0.4516060120546275,-0.1195830503389498,-0.03599579235230763,0.01875512111883877,0.003031492324691478,0.00190831687786498,-0.5670910541786788
1660172558347341,0.07135118638895221,0.8660410467689017,0.4646677347981996,-0.1212515417281787,-0.03621970254429786,0.0184495717251362,0.003160105312499628,0.001893603472287452,-0.5674564004709882
1660172558363098,0.05548180361638799,0.8667734798199431,0.452582589456016,-0.1225557534805507,-0.03660483387852057,0.01809038094608809,0.003292503473212865,0.001878184030984712,-0.5678259114949474
1660172558379092,0.05304036011291657,0.8595712214847024,0.4476997024490732,-0.1235214888984459,-0.03718587585940705,0.01779389880260364,0.003426079548703626,0.001855417873435546,-0.5681938928908512
1660172558395087,0.07061875333791079,0.8722667277027538,0.4721141374837874,-0.1242579649655249,-0.03795650826508862,0.01768828448103705,0.003557050969531632,0.001819835017149139,-0.5685557346008393
1660172558411081,0.07977416647592861,0.8765392538338297,0.4821240558480202,-0.1249201683040103,-0.03885672300063391,0.01786262969847491,0.003681224584691534,0.001771292243751444,-0.568908931482234
1660172558427076,0.07623407339589505,0.8637216754406039,0.4733348592355231,-0.1256651858300739,-0.03975471259877745,0.01830412189890287,0.003795429532913133,0.00171354059004335,-0.5692534672726823
1660172558443071,0.06622415503166224,0.8676279850461581,0.4640573739223317,-0.1266128704319082,-0.04050247706888947,0.018922342683461,0.003898844608864297,0.001651674481471967,-0.5695915379489843
1660172558459065,0.07598992904554791,0.871656366826886,0.4719920653086138,-0.1278188343830895,-0.04101713675667859,0.01962707899079296,0.003992968819704434,0.001591141022201346,-0.569926740860755
1660172558475060,0.06329442282749653,0.8751964599069204,0.452582589456016,-0.1292655474860288,-0.04130234135768562,0.02036485347903832,0.004080423135564914,0.001537594111659668,-0.5702629753202737
1660172558491054,0.07904173342488718,0.875318532082094,0.4672312504768446,-0.1308720128182691,-0.04144119508206096,0.02111794944322575,0.004163510832581893,0.001496063407618927,-0.5706033523013141
1660172558507049,0.09185931181811213,0.8928969253070882,0.4893263141832609,-0.1325193034269091,-0.04155562986358784,0.02186824774289336,0.004243256850152102,0.001468285010014541,-0.5709493921154188
1660172558523043,0.08587777523460716,0.8802014190890368,0.4802929732204166,-0.1340859137570916,-0.04171118512253796,0.0225343705336773,0.004319784288491167,0.001450858578198828,-0.5713007065667458
1660172558539038,0.07000839246204293,0.8615243762874796,0.4623483634699017,-0.1354815222576157,-0.04188696555339894,0.02298180624728394,0.004393769599546102,0.001436959428431057,-0.5716552220594707
1660172558555032,0.06439307240405867,0.8604257267109174,0.458564126039521,-0.1366679445862723,-0.04205629268770963,0.02311837077784464,0.004467124843813139,0.001419089788946616,-0.5720098373541075
1660172558571027,0.06256198977645511,0.8598153658350496,0.4522163729304953,-0.1376622818811063,-0.04223603197732991,0.02295744922408338,0.004542144718032315,0.00139094315787443,-0.57236127835798
1660172558587021,0.05389486533913157,0.8700694285496295,0.4467231250476846,-0.1385230563230751,-0.0424627840275923,0.02262372906993516,0.004620200919578057,0.001348988787378049,-0.5727068694228612
1660172558603016,0.08429083695735073,0.8834973678187232,0.4724803540093081,-0.1393262071346216,-0.04277517955111166,0.02232698603252988,0.0047008059533612,0.001291869682349658,-0.573045010515742
1660172558619011,0.08807507438773143,0.8933852140077825,0.4783398184176395,-0.1401427234695122,-0.04318686021548346,0.02226052076500682,0.004781497711971125,0.001218178060169481,-0.5733752874757817
1660172558635005,0.07049668116273722,0.8726329442282745,0.470527199206531,-0.1410269068702225,-0.04364023946415382,0.02248241879609248,0.004859112625948327,0.001127780780159306,-0.5736982910329121
1660172558651000,0.06353856717784367,0.8644541084916453,0.4584420538643474,-0.1420147121653163,-0.04403204571238164,0.02292848219530916,0.00493162536776976,0.001026415186505615,-0.574015313841838
1660172558666994,0.07135118638895221,0.8604257267109174,0.4684519722285803,-0.1431260552635922,-0.04430250639136976,0.02351643303931796,0.004998725259059463,0.0009270405933654463,-0.5743280683355861
1660172558682769,0.08014038300144932,0.8670176241702903,0.4749217975127795,-0.1443671228585007,-0.0444598293090382,0.02417867180431831,0.005061057496423331,0.0008438736193377007,-0.574638471499792
1660172558698763,0.08502327000839216,0.870801861600671,0.4756542305638209,-0.1457303400851636,-0.04452861284978077,0.02483245597670409,0.005119640559753853,0.0007823670034656455,-0.574948460005355
1660172558714757,0.07415884641794435,0.8732433051041424,0.4629587243457696,-0.1471915361850631,-0.04453180071219106,0.02539818675905928,0.005175812264292026,0.000735217621558407,-0.5752597593155403
1660172558730750,0.07196154726482007,0.8810559243152518,0.4633249408712903,-0.1487084439742607,-0.04451916184345616,0.02584068664910399,0.005230865290181894,0.0006893553624109621,-0.575573581552303
1660172558746744,0.07220569161516721,0.8891126878767075,0.4635690852216374,-0.1502251705156163,-0.04455716624273857,0.0261493558299176,0.005285469792045145,0.0006353622835171071,-0.5758903389951197
1660172558762737,0.06500343327992653,0.8825207904173347,0.4566109712367439,-0.1516825329481736,-0.04468227259489033,0.02630034729469265,0.005339720402595755,0.0005701832990938115,-0.5762094993561542
1660172558778731,0.07647821774624219,0.8686045624475467,0.4697947661554895,-0.1530306621985509,-0.04489425228500472,0.02627712712901724,0.005393622125101243,0.0004939674231877332,-0.5765296468601008
1660172558794725,0.07977416647592861,0.8681162737468524,0.4755321583886474,-0.1542401297324179,-0.04518318021358036,0.02610018510962265,0.005447234376746026,0.0004074908283792902,-0.5768487320732643
1660172558810718,0.08038452735179646,0.8620126649881739,0.4743114366369117,-0.1553082077890544,-0.04553273357964938,0.02579858904903481,0.005500600120296682,0.000313695437606709,-0.5771644460019625
1660172558826712,0.06695658808270366,0.8727550164034481,0.4610055695429924,-0.1562576308824764,-0.04591163452465474,0.02537491712557438,0.005553965488692708,0.0002176781442465808,-0.5774746383310619
1660172558842705,0.05865568017090084,0.8728770885786217,0.4490424963759825,-0.1571282977284876,-0.04628635739835083,0.02483002629467379,0.00560801188026085,0.0001211472635535016,-0.5777776750864037
1660172558858699,0.05792324711985941,0.8869153887235832,0.4476997024490732,-0.1579659989919129,-0.0466345572361201,0.0242139228002107,0.005663604462425514,1.975398599644612e-05,-0.5780726295322308
1660172558874693,0.07171740291447293,0.8838635843442439,0.4570992599374382,-0.1588129891927872,-0.04694029828300917,0.02363544594188037,0.00572123849448505,-9.19439117285847e-05,-0.5783592862765433
1660172558890686,0.07953002212558147,0.8740978103303574,0.4693064774547953,-0.1597032188676665,-0.04719098484378929,0.02322020235633445,0.005780669462209541,-0.0002147226873388725,-0.578638031265973
1660172558906680,0.08184939345387932,0.869947356374456,0.4766308079652095,-0.1606626173219669,-0.04738160953996148,0.02305574277221912,0.005840922523784518,-0.000343851322647499,-0.5789097195348464
1660172558922673,0.07916380560006075,0.863965819790951,0.4745555809872588,-0.1617125204699525,-0.04750880835739926,0.02315973453108922,0.005900660238702827,-0.0004731143430967717,-0.5791755844234023
1660172558938667,0.07342641336690292,0.8671396963454638,0.4700389105058367,-0.1628726720359527,-0.04756280698218295,0.02348010833545721,0.005958773969219967,-0.0005979183079509961,-0.5794371940533458
1660172558954661,0.06744487678339794,0.8748302433813988,0.4572213321126117,-0.1641606718371488,-0.04753800267347201,0.02392631460836659,0.006014832176757604,-0.0007149065820156325,-0.5796964183218686
1660172558970654,0.07147325856412579,0.8819104295414668,0.4624704356450753,-0.165587427223275,-0.04744694135551011,0.02441795215360349,0.006069039094668037,-0.0008256586746883006,-0.5799553665537943
1660172558986648,0.07891966124971361,0.8844739452201118,0.4668650339513238,-0.167150906664377,-0.04731264179564588,0.02491104060519636,0.00612185020531898,-0.0009392617847850471,-0.5802162357421504
1660172559002411,0.07428091859311792,0.8766613260090033,0.4657663843747617,-0.1688309005150051,-0.04715426461879423,0.02538089786690902,0.006173703618505999,-0.001060613946098288,-0.5804810331643974
1660172559018403,0.07916380560006075,0.8732433051041424,0.4710154879072252,-0.170586205701886,-0.04698825424893779,0.02578980462191361,0.006225040665069915,-0.001181284651293892,-0.5807512459865124
1660172559034396,0.07501335164415934,0.8722667277027538,0.4699168383306631,-0.1723548332539937,-0.04683196393951145,0.02607046554515528,0.006276488966520358,-0.001290896092028881,-0.5810275379477656
1660172559050388,0.07220569161516721,0.8700694285496295,0.466254673075456,-0.1740577034450501,-0.04670334936564394,0.02613658185313754,0.00632904640005043,-0.001387563746229163,-0.5813094667954065
1660172559066381,0.07440299076829149,0.8776379034103918,0.4664988174258031,-0.1756065659830175,-0.04663299504505111,0.02592143673879903,0.006383987269288583,-0.00147400144506926,-0.5815952625678521
1660172559082374,0.08331425955596217,0.8844739452201118,0.4783398184176395,-0.1769171739297916,-0.04666671390105381,0.02541000089550627,0.006442384401746839,-0.001557451963137829,-0.581881784580089
1660172559098366,0.07977416647592861,0.8844739452201118,0.4707713435568781,-0.1779268798188828,-0.04682731548433085,0.02463146423127855,0.006504779546295683,-0.001651408567309598,-0.5821647281941759
1660172559114359,0.05694666971847084,0.8688487067978938,0.4478217746242468,-0.178611974468048,-0.04708743304074609,0.02365968401945612,0.006571334941119344,-0.001764510998864604,-0.5824390914238993
1660172559130352,0.04498359655146089,0.8627450980392153,0.4376897840848404,-0.1789982597391942,-0.04741399493054391,0.02266083242418145,0.006641672598974879,-0.001893143254399336,-0.5826998753158618
1660172559146344,0.06622415503166224,0.8705577172503238,0.4616159304188603,-0.1791603835654698,-0.04782040492625644,0.02189716194419437,0.006713838229529399,-0.00203046647969021,-0.5829428880634889
1660172559162337,0.08026245517662289,0.8714122224765388,0.4832227054245823,-0.1792099833415579,-0.04833148985399879,0.02160648906205897,0.006783613324298164,-0.002172554638202347,-0.583165438633434
1660172559178330,0.07721065079728362,0.8651865415426867,0.4827344167238881,-0.1792767039755565,-0.04890140891202781,0.02185788548455695,0.006845697920488945,-0.002314432636876185,-0.5833667681533736
1660172559194322,0.06903181506065437,0.8599374380102232,0.4733348592355231,-0.1794852664920082,-0.04940079176576259,0.02253229755168205,0.006896205883352153,-0.002450142495200247,-0.5835481523249123
1660172559210315,0.06671244373235652,0.8469977874418246,0.4706492713817045,-0.1799301658018723,-0.04969850817384001,0.02343105484061821,0.006934326411121068,-0.002576694286558252,-0.5837126230338677
1660172559226307,0.06842145418478651,0.8653086137178603,0.4638132295719846,-0.180653879537623,-0.04975353039518294,0.02439868530915086,0.006961857586027322,-0.002694055850523729,-0.5838643096368541
1660172559242300,0.08209353780422646,0.8748302433813988,0.4791943236438545,-0.1816375493009245,-0.04963176800923561,0.02535642367564966,0.006981361820410758,-0.002802794703462193,-0.5840075302259803
1660172559258293,0.09320210574502141,0.8905775539787903,0.4855420767528802,-0.1828088789288333,-0.04944029919963732,0.02624042844949312,0.00699477352660764,-0.002901943110157031,-0.5841458727030689
1660172559274285,0.07318226901655578,0.8866712443732361,0.4727244983596552,-0.1840650955566322,-0.04924727051502109,0.02694816569487895,0.007003478960554249,-0.002989889604229724,-0.5842815257474057
1660172559290278,0.06378271152819082,0.868238345922026,0.4608834973678189,-0.185303745139509,-0.04906939140214959,0.02737847581988912,0.007009091808499412,-0.003067301582806186,-0.5844150407058207
1660172559306271,0.07074082551308436,0.8618905928130003,0.4717479209582667,-0.1864521444714092,-0.04891967533101768,0.02750334359133146,0.007013537312259604,-0.003136971948114678,-0.5845455724502818
1660172559322113,0.07318226901655578,0.8728770885786217,0.4745555809872588,-0.1874862636827379,-0.0488181034226231,0.02736285115437444,0.007018464878983141,-0.003203568063759748,-0.5846715063786218
1660172559338104,0.06939803158617508,0.8643320363164717,0.4622262912947281,-0.1884316609046583,-0.04874796529015622,0.02701275312970404,0.007025119159194472,-0.003273960976611733,-0.5847912435279722
1660172559354096,0.0575570305943387,0.8638437476157774,0.455146105134661,-0.1893455076432475,-0.04866028144291581,0.02652524146333477,0.007034689572054936,-0.003350919746254629,-0.5849038479720294
1660172559370088,0.07013046463721651,0.8734874494544895,0.4682078278782331,-0.1902876005639574,-0.04853731818362979,0.02601526729062381,0.007048080777650532,-0.003428412437308569,-0.5850093221222814
1660172559386079,0.0814831769283586,0.8803234912642104,0.4809033340962845,-0.1912928410019215,-0.04840093345462913,0.02559583053820914,0.007065258792586777,-0.003499170658038897,-0.5851084313646394
1660172559402071,0.06732280460822437,0.8836194399938968,0.461127641718166,-0.1923552706659909,-0.04826250413573897,0.02530709594771657,0.007085348487724081,-0.003561115204908348,-0.5852021763793104
1660172559418063,0.06866559853513365,0.8728770885786217,0.4632028686961167,-0.1934280356863241,-0.04812623731102693,0.02512924640659629,0.007107287099496771,-0.003615061584219024,-0.5852911373080625
1660172559434054,0.08111696040283789,0.8836194399938968,0.4762645914396888,-0.1944389430613432,-0.04802781350298255,0.02503094772928377,0.007129941762693633,-0.003664932006035643,-0.5853749435302581
1660172559450046,0.07806515602349862,0.8698252841992824,0.4771190966659038,-0.1953167068653472,-0.04800301319062966,0.02495786750989379,0.007152028729247186,-0.003718089550758881,-0.5854520780582023
1660172559466038,0.0651255054551001,0.8593270771343553,0.4647898069733731,-0.1960176096702118,-0.04803769752273469,0.02483074408252072,0.007172650142539781,-0.003779532004718699,-0.5855201064327807
1660172559482030,0.07135118638895221,0.8587167162584874,0.4701609826810103,-0.1965422879872847,-0.0481017870738833,0.02461797809642932,0.007191659342693075,-0.003850306833126343,-0.5855762527302194
1660172559498021,0.08001831082627575,0.873365377279316,0.4785839627679866,-0.1969389785635808,-0.04819033379719594,0.02436978734985214,0.007209079280826749,-0.00393085023439094,-0.5856181342940594
1660172559514013,0.05951018539711583,0.8751964599069204,0.458564126039521,-0.1972939198999806,-0.04828764176410143,0.02415956355524527,0.007224582932871251,-0.004018519089368081,-0.5856444475488286
1660172559530005,0.04950026703288302,0.8618905928130003,0.4509956511787596,-0.1977107044764074,-0.04835025863061077,0.0240553096581719,0.007237688934081589,-0.004105289487650326,-0.5856554132362375
1660172559545996,0.06243991760128154,0.8723887998779274,0.4664988174258031,-0.1982841891337004,-0.048355510567196,0.02414994656612068,0.007247731790954766,-0.004183350511239853,-0.5856528430425137
1660172559561988,0.08636606393530144,0.8744640268558781,0.4859082932784009,-0.1990780057782691,-0.04830439867544906,0.02453384946909726,0.007253464361090122,-0.004248217240877403,-0.5856398165538387
1660172559577980,0.08441290913252431,0.8732433051041424,0.4841992828259709,-0.2001119754005321,-0.04817466045352582,0.02521472872375057,0.007253395749245521,-0.00429507687406485,-0.5856200830853499
1660172559593971,0.08026245517662289,0.8649423971923396,0.4777294575417717,-0.2013604202032403,-0.04794197388692886,0.02610551286639352,0.007246676427693549,-0.004317947704580448,-0.5855973492135005
1660172559609963,0.08294804303044145,0.8686045624475467,0.4774853131914245,-0.2027604783399123,-0.04763977884726477,0.02708716783691407,0.007233219238758673,-0.004312449684371196,-0.5855746163210879
1660172559625955,0.07794308384832505,0.8773937590600447,0.4782177462424659,-0.2042284824258259,-0.04734507305506369,0.02805531866978178,0.007213066653942934,-0.004277610931730172,-0.585553715577393
1660172559641784,0.08172732127870574,0.8798352025635161,0.4822461280231938,-0.2056795432499667,-0.04711948457614925,0.02890326519583136,0.007186146178954438,-0.004218266116600002,-0.5855351298016439
1660172559657776,0.08099488822766432,0.8750743877317468,0.488715953307393,-0.2070434542811174,-0.046978457769755,0.02947822883883145,0.007152890466871717,-0.004145191263400244,-0.5855181018975412
1660172559673767,0.03326466773479808,0.8533455405508503,0.4439154650186925,-0.2082705349430061,-0.04689630270658581,0.02962664713067693,0.007115029832162782,-0.004068284720462554,-0.5855009228384465
1660172559689758,0.04217593652246876,0.8612802319371324,0.4429388876173039,-0.2093270904179286,-0.04685799891874229,0.02935480745202353,0.007075167277883601,-0.003990755471995408,-0.5854812268675861
1660172559705749,0.09723048752574925,0.8794689860379954,0.4960402838178073,-0.2101880800394256,-0.04690937829751904,0.02887739740324305,0.007034810259100069,-0.003912883646059639,-0.5854561829310415
1660172559721740,0.1054093232623785,0.877882047760739,0.5077592126344701,-0.2108343972016923,-0.04710940511068254,0.02840439791095237,0.006993043497549417,-0.003838289021835902,-0.5854226053213456
1660172559737732,0.07452506294346506,0.8675059128709846,0.4772411688410774,-0.21125754357026,-0.04744881025733843,0.02793716617872348,0.006947764012782959,-0.003773664726334418,-0.5853770875008519
1660172559753723,0.05560387579156156,0.8651865415426867,0.459418631265736,-0.2114695434404704,-0.04786726658384702,0.02735162391713926,0.006897843679375598,-0.003723420937112696,-0.5853162562749122
1660172559769714,0.05706874189364441,0.8611581597619589,0.4624704356450753,-0.211513483717432,-0.04831870493236495,0.02660294427204975,0.006843568830571436,-0.003684894926240434,-0.5852371870462256
1660172559785705,0.06744487678339794,0.8633554589150831,0.4724803540093081,-0.2114698679657521,-0.04877778970436043,0.02577257758147157,0.006785575746668095,-0.003650941801224397,-0.5851379481647107
1660172559801696,0.07159533073929936,0.8688487067978938,0.4782177462424659,-0.2114526398478699,-0.04920446989440015,0.02497812013111868,0.006724159350675818,-0.003618916899225611,-0.5850181603144002
1660172559817688,0.05645838101777656,0.8697032120241088,0.461982146944381,-0.2115921084818692,-0.04952871416258762,0.02431534684864365,0.006659525641046713,-0.003591752440216292,-0.5848793946920203
1660172559833679,0.06488136110475295,0.858838788433661,0.4640573739223317,-0.2120082384133393,-0.04968570104653814,0.02387139085929566,0.006592085218971801,-0.003569771752206074,-0.5847252276816536
1660172559849670,0.07367055771725006,0.8717784390020595,0.4758983749141681,-0.212781796362965,-0.04966588725454124,0.02372862865094244,0.006522087872678383,-0.003549914830321851,-0.5845608454985139
1660172559865661,0.07757686732280433,0.8671396963454638,0.4839551384756238,-0.2139319023526385,-0.0495084920367626,0.0239267528361378,0.006449091563795608,-0.00353070358409032,-0.5843922359563315
1660172559881652,0.08416876478217716,0.8727550164034481,0.4910353246356909,-0.2154063131509872,-0.04925968127159291,0.02443282379132283,0.006372037702247335,-0.003509218042084073,-0.5842251269287372
1660172559897644,0.09393453879606284,0.8792248416876483,0.4973830777447166,-0.2170879480284029,-0.04895855993269786,0.02513812796600526,0.00628984547912107,-0.003478360411394222,-0.5840638977726367
1660172559913635,0.07660028992141577,0.869947356374456,0.4795605401693752,-0.2188171635977148,-0.04863627078883768,0.02587859857615031,0.006202040372403746,-0.003433501846583833,-0.5839107180443766
1660172559929626,0.05938811322194226,0.8684824902723731,0.4614938582436867,-0.2204236791352515,-0.04832585898641847,0.02651276293763834,0.006108927138393361,-0.003375107855038106,-0.5837651218161046
1660172559945617,0.07757686732280433,0.8722667277027538,0.4807812619211109,-0.2217610658146124,-0.04809054802896971,0.02699942915702349,0.006010876086263976,-0.003301670348783173,-0.5836241148930467
1660172559961425,0.08673228046082215,0.8789806973373011,0.4920119020370795,-0.2227381900141989,-0.047996581886409,0.02734783740146743,0.005907490257338497,-0.003208200101061877,-0.5834828067458062
1660172559977416,0.06903181506065437,0.8620126649881739,0.4766308079652095,-0.2233395537716738,-0.04803933858071061,0.02751420599054772,0.005798085816971901,-0.003094429260090665,-0.5833354552779857
1660172559993407,0.0634164950026701,0.8548104066529332,0.4694285496299688,-0.2236267582241433,-0.04815183254415652,0.02742122989431813,0.005682961250041104,-0.002968236357114979,-0.5831766892116875
1660172560009398,0.07086289768825793,0.8559090562294953,0.4782177462424659,-0.223721383006577,-0.04827515332520772,0.02704615125262944,0.005563689446692651,-0.002841185010072429,-0.5830026072903444
1660172560025388,0.06939803158617508,0.859693293659876,0.4734569314106967,-0.2237755509644526,-0.04836687372254648,0.02643640897598318,0.005442448761991009,-0.002726137963399056,-0.58281150409563
1660172560041379,0.06561379415579438,0.863965819790951,0.4699168383306631,-0.2239363508158697,-0.04838436317616387,0.02568848402680142,0.005321433524199765,-0.002634533853010072,-0.5826040738029387
1660172560057370,0.08050659952697004,0.8739757381551838,0.4837109941252766,-0.2243124196982738,-0.04830866993469608,0.02493292038000208,0.005202359230103253,-0.002568311923997682,-0.5823830570251683
1660172560073361,0.08001831082627575,0.882154573891814,0.4826123445487145,-0.224952601811735,-0.04814265369221694,0.02427662533909354,0.005086105879667134,-0.002518140140523477,-0.5821524508005547
1660172560089351,0.06463721675440581,0.8675059128709846,0.4668650339513238,-0.2258410848609196,-0.04788263630262837,0.02375305903194105,0.004973000619044707,-0.00247330594179241,-0.5819165172277181
1660172560105342,0.0689097428854808,0.8670176241702903,0.4751659418631267,-0.2269069150839436,-0.0475468933265537,0.02336201315666468,0.004863139461530649,-0.002429470537558422,-0.5816788301972012
1660172560121333,0.0814831769283586,0.872510872053101,0.486152437628748,-0.2280441739539001,-0.04720783537161819,0.02311319854868799,0.004755955140469182,-0.00238807216028301,-0.5814415554517115
1660172560137323,0.0794079499504079,0.8692149233234145,0.4804150453955902,-0.2291380531900739,-0.04694444402344458,0.02299653117120563,0.004649835966469427,-0.002353450623028942,-0.5812050987472779
1660172560153314,0.0718394750896465,0.8627450980392153,0.4724803540093081,-0.2300898778118189,-0.04679670955254345,0.0229737994534761,0.004542541970214784,-0.00232853975034614,-0.5809681607423046
1660172560169305,0.07550164034485363,0.8635996032654303,0.4793163958190281,-0.230835998978577,-0.04678948508602039,0.02303141213472412,0.004431593707806369,-0.002310633303153735,-0.5807281429643233
1660172560185296,0.08392462043183002,0.871656366826886,0.4926222629129473,-0.2313598902073429,-0.04694004014749872,0.02318148417915979,0.004314228090477412,-0.002293126377480624,-0.5804818064558079
1660172560201286,0.07232776379034078,0.8773937590600447,0.4784618905928131,-0.2316965857448982,-0.04720950531569047,0.02339061750860226,0.004187918798512114,-0.002269155300895814,-0.5802260638775122
1660172560217277,0.05645838101777656,0.8604257267109174,0.4682078278782331,-0.2319255661208278,-0.04748671991207171,0.02355829298214469,0.004051716362579045,-0.00223204716588103,-0.5799587472757624
1660172560233268,0.05804531929503298,0.8559090562294953,0.4655222400244146,-0.2321502421122618,-0.04764551741277792,0.02358815336779016,0.00390710473697497,-0.00217858763753793,-0.5796791557323528
1660172560249259,0.06390478370336439,0.8499275196459903,0.4677195391775388,-0.232468752203683,-0.04761576802392026,0.02346538162838541,0.003757374387410313,-0.002112926064972124,-0.5793882063689223
1660172560265249,0.08514534218356573,0.8581063553826196,0.4907911802853437,-0.232945169996995,-0.04740863898778929,0.02325373091881353,0.003606030723051168,-0.002043318560215119,-0.5790881194262706
1660172560281097,0.09356832227054213,0.8820325017166404,0.4984817273212787,-0.233590693324462,-0.04707933328385057,0.02300816532841612,0.003455647028020173,-0.001976800861070657,-0.5787817210004409
1660172560297087,0.08123903257801146,0.8817883573662932,0.4818799114976731,-0.2343616616931115,-0.04667012941061806,0.02269744299726933,0.003308029210945833,-0.001916515130933856,-0.5784715787642757
1660172560313077,0.07415884641794435,0.8805676356145575,0.4689402609292745,-0.2351754075727688,-0.04620526806279732,0.02223315878967455,0.003165004037053996,-0.001860048559622108,-0.5781592482407322
1660172560329066,0.06854352635996008,0.8712901503013653,0.4685740444037538,-0.2359388010297364,-0.0457279499757178,0.02156768334283994,0.003028478512564992,-0.001803440000978155,-0.577844879339977
1660172560345056,0.06524757763027367,0.8590829327840082,0.4590524147402153,-0.2365795753092759,-0.04531440097571015,0.02075898267363304,0.002899494441414579,-0.00174879483821983,-0.5775273062043221
1660172560361046,0.07074082551308436,0.8626230258640417,0.4718699931334402,-0.2370688547715804,-0.04505641292995249,0.01997061897996269,0.002777047106816168,-0.00170337071596142,-0.5772045622821734
1660172560377036,0.07598992904554791,0.8692149233234145,0.4824902723735409,-0.2374279486499961,-0.04502636170474484,0.01941197219692449,0.002657506162946655,-0.00167213563654373,-0.5768746239076402
1660172560393026,0.0756237125200272,0.868238345922026,0.4776073853665981,-0.2377201347086466,-0.04523283100082769,0.01924334656039896,0.002535204748623883,-0.001654203851505775,-0.5765361438930752
1660172560409015,0.06964217593652222,0.8651865415426867,0.4784618905928131,-0.2380320713019929,-0.04560933791246474,0.0195225184027227,0.002404007330143052,-0.001643068945299036,-0.5761889733927681
1660172560425005,0.06598001068131509,0.8633554589150831,0.4778515297169452,-0.238449909579183,-0.04605260858807775,0.02022758483934812,0.002258812829616761,-0.001628218307236107,-0.57583434572516
1660172560440995,0.06915388723582794,0.8589608606088346,0.4783398184176395,-0.2390362073382678,-0.04646573104947677,0.02129710689883247,0.002096241728676673,-0.001597688536099111,-0.5754746856559131
1660172560456985,0.07672236209658934,0.8675059128709846,0.4838330663004502,-0.2398140672103451,-0.0467773855821674,0.02263734843482466,0.00191470162191188,-0.001539571227213573,-0.5751131057868983
1660172560472974,0.08416876478217716,0.8751964599069204,0.4898146028839552,-0.2407627848161933,-0.04693918049382263,0.02410388395537802,0.001714382814232312,-0.001445949300714089,-0.5747527426477745
1660172560488964,0.09112687876707071,0.877027542534524,0.4959182116426337,-0.2418255592221355,-0.04690898315809378,0.02548662257220954,0.001497521548950491,-0.001319962921123413,-0.5743961233482011
1660172560504954,0.08661020828564858,0.8695811398489353,0.4907911802853437,-0.2429250886834973,-0.04664866884373337,0.02653358825984019,0.001268759341237025,-0.001174184607698822,-0.5740447134638791
1660172560520944,0.07672236209658934,0.854566262302586,0.4804150453955902,-0.2439805591876221,-0.04615358461227574,0.02702270922114266,0.001034931761070514,-0.001020253687587532,-0.5736987159306592
1660172560536934,0.06952010376134865,0.8604257267109174,0.4661326009002824,-0.2449209644840318,-0.04548272162324755,0.02684399227896507,0.0008038284154563404,-0.0008665997015190181,-0.5733571178240148
1660172560552923,0.05987640192263655,0.8657969024185546,0.4550240329594875,-0.2456920946552407,-0.04475990355418093,0.02605104116710519,0.0005822009754989641,-0.0007215389885107153,-0.5730179066927372
1660172560568913,0.07135118638895221,0.8747081712062252,0.4656443121995881,-0.2462578403174993,-0.04414644707545891,0.02484773996155131,0.0003737994547634488,-0.00058878825393099,-0.5726783458007947
1660172560584903,0.08099488822766432,0.8926527809567411,0.4854200045777066,-0.2466002093037674,-0.04377847319364544,0.0234837195345824,0.0001785033001165805,-0.0004674387827732924,-0.5723352648731872
1660172560600769,0.07733272297245719,0.8811779964904254,0.4804150453955902,-0.2467231415206274,-0.04368937001684685,0.02212514040216411,-6.64140067714277e-06,-0.000360965134771943,-0.5719853917975991
1660172560616758,0.06500343327992653,0.8633554589150831,0.4686961165789274,-0.2466598997951766,-0.04380275641862928,0.02083657542491392,-0.0001852097287391404,-0.0002742381807575879,-0.5716257585351686
1660172560632747,0.06097505149919868,0.8515144579232468,0.469672693980316,-0.246476969243945,-0.04401602994023711,0.01967678080782379,-0.0003600265424138618,-0.0002031001789360394,-0.5712541874161745
1660172560648737,0.06927595941100151,0.8549324788281067,0.4733348592355231,-0.2462675999141842,-0.04426476713565564,0.0187595802178548,-0.0005334466799781413,-0.0001400584111999703,-0.5708697779386078
1660172560664726,0.07061875333791079,0.8493171587701225,0.4776073853665981,-0.246133231104376,-0.04451245954089697,0.01821353565540938,-0.0007080924068235865,-8.441527061644506e-05,-0.5704732001324224
1660172560680715,0.06659037155718295,0.863111314564736,0.470527199206531,-0.2461566181362055,-0.04473737848267705,0.01812531391658145,-0.0008870409130076019,-3.619226079217528e-05,-0.5700666030260948
1660172560696704,0.07086289768825793,0.8743419546807045,0.4783398184176395,-0.2463766235147923,-0.04494448034086523,0.01852176798761079,-0.001073705126970891,1.194894613834303e-05,-0.5696531016202916
1660172560712694,0.0785534447241929,0.8836194399938968,0.492133974212253,-0.2467769370919155,-0.04514716426752009,0.01935031061236444,-0.001271520481061261,6.935056170487037e-05,-0.5692359898355007
1660172560728683,0.07891966124971361,0.8715342946517124,0.4892042420080873,-0.2472944913314922,-0.04532409969030513,0.02045809609917882,-0.001483044392822362,0.0001404341272560022,-0.5688179338704065
1660172560744672,0.07598992904554791,0.8650644693675131,0.4826123445487145,-0.247842572733604,-0.0454222795527608,0.02163476009111719,-0.00170886537247109,0.0002254967566247357,-0.56840040729526
1660172560760662,0.08758678568703715,0.8572518501564046,0.4888380254825666,-0.2483391773017704,-0.04540711854137605,0.0226989459336231,-0.001947397236500068,0.0003231812903425054,-0.5679835357794082
1660172560776651,0.08453498130769788,0.8559090562294953,0.4855420767528802,-0.2487320364424923,-0.04528896352903438,0.02353281571018044,-0.002195688008353834,0.0004320623503475204,-0.5675663704617433
1660172560792640,0.06781109330891866,0.853711757076371,0.4706492713817045,-0.249011437999652,-0.0451118170467061,0.0240624646429875,-0.002450393911940858,0.0005516582732436194,-0.5671474648849947
1660172560808630,0.06256198977645511,0.8618905928130003,0.4694285496299688,-0.2492059391778999,-0.04493945658390919,0.02425230396969719,-0.002708478209039751,0.0006807701173394101,-0.5667255245053877
1660172560824619,0.06268406195162868,0.8745860990310517,0.4732127870603495,-0.2493656476870292,-0.0448273786947307,0.02410877048839831,-0.002967611891640098,0.0008158394379848652,-0.5662998886135966
1660172560840608,0.06915388723582794,0.877882047760739,0.4712596322575724,-0.2495426979118359,-0.04477712519975867,0.02366369361862574,-0.00322601193574687,0.0009510121511951514,-0.565870720113182
1660172560856598,0.07879758907454004,0.8729991607537952,0.4783398184176395,-0.2497765012010875,-0.04473500188100605,0.02296566334463555,-0.003481853234170698,0.001078542203032516,-0.5654389208937974
1660172560872587,0.08392462043183002,0.8760509651331354,0.4810254062714581,-0.2500877531065633,-0.04464368202907407,0.02208974323592902,-0.003733033502113453,0.001192713050021525,-0.5650058746904726
1660172560888576,0.0852674143587393,0.8700694285496295,0.4807812619211109,-0.2504808799933238,-0.04447200520988737,0.02112887616400655,-0.003977506613633103,0.001294144508745137,-0.5645731595194865
1660172560904565,0.06683451590753009,0.8612802319371324,0.4646677347981996,-0.2509495607287604,-0.04421304388252755,0.02017464668964654,-0.004213697676260899,0.001386051672296666,-0.564142337769049
1660172560920440,0.05523765926604085,0.8513923857480732,0.4575875486381324,-0.2514791075175278,-0.04390120852500488,0.01933155608311855,-0.004441003425669044,0.001468754809322516,-0.5637148133409444
1660172560936429,0.06170748455024011,0.8775158312352183,0.4699168383306631,-0.2520446391900949,-0.04362033928401732,0.01873558247490784,-0.004660598652435092,0.001542396881510078,-0.5632916785037574
1660172560952418,0.08465705348287145,0.8755626764324411,0.4918898298619059,-0.2526098024407938,-0.04344670012217896,0.01850031058068903,-0.004875762696115921,0.001611940266529813,-0.5628735307684081
1660172560968407,0.08831921873807858,0.8775158312352183,0.4935988403143359,-0.2531315528535114,-0.04337881893470439,0.01862536629235791,-0.005090743371893578,0.001685680666598519,-0.5624603287758102
1660172560984396,0.07281605249103507,0.8738536659800102,0.471381704432746,-0.253571155986041,-0.04334615972505863,0.01899494931491408,-0.005308822858003432,0.001770853662758488,-0.5620513794857437
1660172561000384,0.08221560997940003,0.857984283207446,0.4793163958190281,-0.2539071733221826,-0.04327907417308957,0.01947107113796191,-0.005531295300437271,0.001872952537093691,-0.5616455106167416
1660172561016373,0.0747692072938122,0.8650644693675131,0.472236209658961,-0.2541462257485186,-0.04314851782820581,0.0199614984306258,-0.00575784875145168,0.001995016854858258,-0.5612414344862319
1660172561032362,0.06634622720683581,0.8621347371633474,0.466254673075456,-0.2543264032833996,-0.04295766163194845,0.02042604148451888,-0.00598746090739107,0.002133542782831004,-0.5608382343913683
1660172561048351,0.08538948653391287,0.8628671702143889,0.4928664072632944,-0.2545095976936204,-0.04272589064638676,0.02085007724305953,-0.00621904502611915,0.002279320430458509,-0.5604358084219428
1660172561064340,0.0814831769283586,0.864820325017166,0.4910353246356909,-0.2547647587496822,-0.0424574343056655,0.02118298520564709,-0.006451415458649646,0.002424517983311647,-0.5600351013381949
1660172561080329,0.05474937056534657,0.8618905928130003,0.4597848477912567,-0.2551460126595283,-0.04211177646971706,0.02131734031671986,-0.006682501322793931,0.002566373711491265,-0.5596380305948183
1660172561096317,0.06451514457923224,0.8645761806668188,0.4590524147402153,-0.2556710535523298,-0.04165212661274757,0.02118609731310267,-0.006908996408352822,0.0027067761335848,-0.5592470748990002
1660172561112306,0.0995498588540471,0.8839856565194175,0.4953078507667659,-0.2563105075998683,-0.04111736845984598,0.02082993263998534,-0.007127501379038123,0.002850771607145955,-0.5588646106311426
1660172561128295,0.08905165178912,0.8871595330739304,0.4865186541542688,-0.2569954022909597,-0.04058206634151215,0.02030282238611878,-0.00733577903687116,0.003002671440083723,-0.5584922294142727
1660172561144284,0.06817730983443937,0.8689707789730674,0.4650339513237203,-0.2576381668658161,-0.04007458082635288,0.01959933735710382,-0.007532496775197667,0.003161937371725744,-0.5581302833230154
1660172561160273,0.06695658808270366,0.8740978103303574,0.4562447547112232,-0.2581584964996435,-0.03960556885997531,0.01875243670386014,-0.007716699627588211,0.003321718393325329,-0.5577778006878731
1660172561176262,0.07794308384832505,0.866529335469596,0.4740672922865645,-0.2585077058757276,-0.03923150075427142,0.0179112418161403,-0.007888623182829487,0.003471647275699227,-0.5574327951638807
1660172561192250,0.07660028992141577,0.8683604180971995,0.4807812619211109,-0.2586846337632054,-0.03901526554831021,0.01724932488311261,-0.008050618016753209,0.003605354557754558,-0.557092879638063
1660172561208239,0.0689097428854808,0.8618905928130003,0.4737010757610438,-0.2587360921811639,-0.03895460175076237,0.01685997501695688,-0.008206519765323283,0.003725588218160563,-0.5567560105559504
1660172561224228,0.06793316548409223,0.8563973449301896,0.4773632410162509,-0.2587403182536046,-0.03899493932005877,0.01677103630418286,-0.00836025289218071,0.003841063644689708,-0.5564211277917396
1660172561240112,0.06866559853513365,0.8629892423895624,0.4761425192645152,-0.2587797322473205,-0.03908170837857024,0.01698546239168999,-0.008515107434346577,0.003959818251798791,-0.5560884591336918
1660172561256100,0.07586785687037434,0.8629892423895624,0.4841992828259709,-0.2589132766581213,-0.03917133428768201,0.01746482243595138,-0.008673550513179324,0.004085378668418994,-0.5557593785309606
1660172561272089,0.07257190814068792,0.8723887998779274,0.4768749523155567,-0.2591564439369141,-0.03922378773470436,0.0181164571759475,-0.008836944956656203,0.004217638318589523,-0.5554358670611685
1660172561288077,0.08221560997940003,0.8666514076447696,0.4844434271763181,-0.2594746174616896,-0.03921815814785826,0.01883018954343293,-0.009005419545920691,0.004355655263558171,-0.5551197531952814
1660172561304065,0.08661020828564858,0.8760509651331354,0.4838330663004502,-0.2597937119305768,-0.03916868444421786,0.01951514071344757,-0.009178252200557159,0.004497457682774705,-0.5548119959969857
1660172561320054,0.08624399176012787,0.8650644693675131,0.4859082932784009,-0.260026533804282,-0.03910944954926517,0.02009966908157818,-0.009354405115665319,0.004639732326333594,-0.5545122656008302
1660172561336042,0.08026245517662289,0.8715342946517124,0.4787060349431602,-0.2601059097491495,-0.03906315931592826,0.0205279436486482,-0.009532723558671033,0.004782548878187968,-0.5542189796470979
1660172561352030,0.06488136110475295,0.8626230258640417,0.4616159304188603,-0.2600128287628069,-0.03903161478577752,0.02078328997176795,-0.009711932010418235,0.004931741147587701,-0.5539298390517667
1660172561368019,0.06817730983443937,0.8585946440833139,0.4751659418631267,-0.2597905536393298,-0.03900682778530778,0.02090880327653405,-0.009890817137320332,0.005092163061682783,-0.5536427408601663
1660172561384007,0.0726939803158615,0.864820325017166,0.4796826123445488,-0.2595404042387095,-0.03896205349842429,0.02098574159567216,-0.01006842168141283,0.005262134372184479,-0.5533567679973472
1660172561399995,0.07330434119172935,0.858838788433661,0.4776073853665981,-0.2593993364110612,-0.03882583612010881,0.02108664780687166,-0.0102437224829586,0.005437645847344026,-0.5530729253093833
1660172561415984,0.07525749599450648,0.8640878919661246,0.4801709010452431,-0.2595040015050099,-0.03849860799194003,0.02124927135373179,-0.0104149518464855,0.005617277728177782,-0.5527944020197332
1660172561431972,0.07586785687037434,0.8671396963454638,0.4733348592355231,-0.2599508862458753,-0.03791682720623127,0.02147814285097032,-0.010579380179236,0.005799658392810689,-0.5525262573712755
1660172561447960,0.08282597085526788,0.866529335469596,0.4795605401693752,-0.2607643192951642,-0.03709184855289988,0.02175267963750795,-0.01073385092328232,0.00598056654087267,-0.5522745328327641
1660172561463949,0.09161516746776499,0.8858167391470211,0.4796826123445488,-0.261881565387829,-0.03609515649747953,0.02204043809060519,-0.01087556787273403,0.006157756310498754,-0.5520449523154685
1660172561479937,0.09478904402227784,0.8748302433813988,0.4773632410162509,-0.2631599885825764,-0.03503966157605023,0.0223118781910398,-0.01100276270540195,0.006336235701174099,-0.5518415565725356
1660172561495926,0.09246967269397999,0.8850843060959797,0.4865186541542688,-0.2644064652935303,-0.03406748798007304,0.02253106478098321,-0.01111517029981839,0.006523593182026787,-0.5516656795842616
1660172561511914,0.07367055771725006,0.8749523155565724,0.4750438696879531,-0.2654221361781737,-0.03330531412834555,0.02263773571361837,-0.01121400127144541,0.00672271743343396,-0.5515155335580608
1660172561527902,0.06707866025787723,0.8644541084916453,0.4700389105058367,-0.2660497726411528,-0.03282148176495226,0.0225723753051674,-0.01130133666450077,0.006930902376204922,-0.5513865018818569
1660172561543891,0.07757686732280433,0.8651865415426867,0.4805371175707638,-0.2662112083463091,-0.03263632835199592,0.02231537579404773,-0.01137955411372571,0.007141408342725013,-0.5512721008231989
1660172561559784,0.08099488822766432,0.8612802319371324,0.4873731593804838,-0.2659262165104562,-0.03273112812824415,0.0218666050567283,-0.01145096249326262,0.007348755374925494,-0.5511653719493508
1660172561575772,0.06158541237506654,0.8584725719081403,0.4627145799954224,-0.2653076938346679,-0.03302548279294452,0.02121119975493992,-0.01151712329441471,0.00755103957738854,-0.5510603990326521
1660172561591760,0.05682459754329727,0.8510261692225525,0.458564126039521,-0.2645330192965918,-0.03339981264862386,0.02036404346386862,-0.01157821218228532,0.007729566839225386,-0.5509536813631336
1660172561607749,0.0672007324330508,0.8644541084916453,0.4655222400244146,-0.2638002742711429,-0.03376430256837845,0.01943514988489535,-0.01163345336047366,0.007828254729157866,-0.5508449388070482
1660172561623737,0.08844129091325215,0.8728770885786217,0.4896925307087816,-0.2632835070972795,-0.03407239352412378,0.01859166529897818,-0.01168223452998739,0.007766885833262054,-0.5507369848162809
1660172561639725,0.08685435263599572,0.8805676356145575,0.4915236133363852,-0.2630982629726363,-0.034269488888403,0.01794257144397323,-0.0117243467622265,0.007446684050005644,-0.5506348737511314
1660172561655714,0.07037460898756365,0.8709239337758445,0.4664988174258031,-0.2632822007774444,-0.03428253396226953,0.01749308364284238,-0.01175915322402647,0.006730916906491888,-0.5505444764131807
1660172561671702,0.06207370107576082,0.8650644693675131,0.4539253833829253,-0.2637913629214762,-0.0340915974024627,0.01722178117108175,-0.01178530771785881,0.005506403135552717,-0.5504701929998603
1660172561687690,0.06793316548409223,0.8686045624475467,0.4682078278782331,-0.2645119755774852,-0.03378475505074807,0.01716142292060019,-0.0118019811436053,0.003817675629628073,-0.5504133293738089
1660172561703679,0.08184939345387932,0.8712901503013653,0.4840772106507973,-0.2652865753298335,-0.03350807067443798,0.01736552544380926,-0.01181031130548417,0.001841407923061939,-0.5503731135037642
1660172561719667,0.09759670405126997,0.8740978103303574,0.5022659647516594,-0.2659502770302201,-0.0333671598881889,0.0178129725478621,-0.01181330912788925,-0.0002938762323112494,-0.5503475484033811
1660172561735655,0.09552147707331926,0.8780041199359125,0.489570458533608,-0.2663705563908452,-0.03338087341406625,0.0183779298475242,-0.01181426026835563,-0.002567299565981113,-0.5503325082878517
1660172561751644,0.07879758907454004,0.8688487067978938,0.4707713435568781,-0.2664820378084107,-0.03350350325035953,0.01889352114010481,-0.01181509408353733,-0.004977036761642184,-0.5503221763679981
1660172561767632,0.05828946364538012,0.8644541084916453,0.4557564660105289,-0.266307236078057,-0.03367747784626834,0.0192473071571657,-0.01181590802219831,-0.007501778000553757,-0.550310805149364
1660172561783620,0.05865568017090084,0.8664072632944224,0.4563668268863967,-0.2659564251042227,-0.03386411499806116,0.01943667861227902,-0.01181567347024912,-0.0101252761974553,-0.5502939242162833
1660172561799609,0.07281605249103507,0.8640878919661246,0.4726024261844817,-0.2656038866838866,-0.03401935007279653,0.01954483359658161,-0.01181311185358664,-0.01282442128587495,-0.5502698271050142
1660172561815597,0.07867551689936647,0.8626230258640417,0.4746776531624324,-0.2654425992089633,-0.03406799162767761,0.01966951200199688,-0.01180684301671443,-0.01557453037483411,-0.550240181970828
1660172561831586,0.08136110475318503,0.8615243762874796,0.485297932402533,-0.2656263190098989,-0.03393812903786339,0.01986717183751674,-0.01179508524117233,-0.01837186543805148,-0.5502089415870308
1660172561847574,0.08783093003738429,0.877027542534524,0.4862745098039216,-0.2662146368817393,-0.03360054681140334,0.02012382930466287,-0.01177552674139097,-0.02117678961837458,-0.5501834583952693
1660172561863562,0.07110704203860507,0.8745860990310517,0.4597848477912567,-0.2671362926954616,-0.0330646811058334,0.02035892995295736,-0.01174534100356425,-0.02386193530617389,-0.5501763551867901
1660172561879394,0.06610208285648866,0.8684824902723731,0.4503852903028918,-0.2681814512584122,-0.03240437689495505,0.0204972686312446,-0.01170165567782449,-0.02628392574892576,-0.5502013842253669
1660172561895382,0.08453498130769788,0.8827649347676818,0.4684519722285803,-0.2690318485591285,-0.03181599362507107,0.02054790272632463,-0.01164320585041305,-0.02838240557671423,-0.550265413563112
1660172561911369,0.09478904402227784,0.8878919661249718,0.4888380254825666,-0.2693327946164879,-0.03156688458474984,0.02055734109807772,-0.01157216154099359,-0.03017865324757354,-0.5503652883183402
1660172561927356,0.08599984740978073,0.8833752956435497,0.4767528801403831,-0.2687979407542454,-0.03182873875953516,0.02048937580472869,-0.01149377603658864,-0.0317475516470044,-0.5504885167561413
1660172561943344,0.06353856717784367,0.8684824902723731,0.4483100633249411,-0.2673234530709969,-0.03259068674252586,0.02023868075484887,-0.01141385158528153,-0.03325426145619895,-0.5506121631920691
1660172561959331,0.06573586633096795,0.8589608606088346,0.4524605172808425,-0.2650826212199338,-0.03371267551876405,0.01977419103886016,-0.01133660085007148,-0.03495937992122522,-0.5507050671024685
1660172561975319,0.07574578469520077,0.8653086137178603,0.4710154879072252,-0.2625762384467947,-0.03496009241884502,0.01919279420930824,-0.01126390617260285,-0.03714673294692802,-0.5507362425629725
1660172561991306,0.07489127946898577,0.8679942015716788,0.4717479209582667,-0.2606174447399932,-0.03595940183622313,0.01862697848690915,-0.01119435643830504,-0.03997229919850045,-0.5506901076969072
1660172562007293,0.06744487678339794,0.8684824902723731,0.4650339513237203,-0.2602352177451997,-0.0361973116427705,0.0181471384362542,-0.01112121020439365,-0.04333085823259503,-0.5505834068654926
1660172562023281,0.06439307240405867,0.8670176241702903,0.4567330434119174,-0.262499098102079,-0.03513275482864486,0.01774065644357795,-0.01103065381142044,-0.04697710518310307,-0.5504631476311093
1660172562039268,0.06988632028686936,0.8651865415426867,0.4627145799954224,-0.2682927863429305,-0.03238157626636346,0.01735652168571629,-0.01090220890020605,-0.05073576558154327,-0.5503899099072236
1660172562055256,0.08136110475318503,0.9053482871747924,0.4623483634699017,-0.2780864354504933,-0.02787828586066645,0.01692853426903447,-0.01071181071145542,-0.05454114194475095,-0.5504273862944055
1660172562071243,0.09356832227054213,1.013260090028229,0.456855115587091,-0.2917653752691076,-0.02188340582829833,0.01631329980814216,-0.01043590233659723,-0.05834823049268933,-0.5506413842874553
1660172562087230,0.1205462729839013,1.021194781414511,0.486152437628748,-0.3085683664143869,-0.01488774943396127,0.01535107505969025,-0.01005491208104847,-0.06212691706324966,-0.5510904444056942
1660172562103218,0.1826810101472498,1.067582207980468,0.5539024948500799,-0.3271782723832281,-0.007579641373185288,0.01408573999797053,-0.009556964273442065,-0.0659106775919443,-0.551809717666318
1660172562119205,0.193423361562524,1.156694895857176,0.5122758831158922,-0.3459575172426598,-0.0006799577098219539,0.01263575744393867,-0.008940584674139721,-0.06969662848877391,-0.5528153045919374
1660172562135192,0.06549172198062081,0.9352559700923173,0.4042420080872819,-0.3632542507748481,0.005508898257777065,0.01075275765992761,-0.008210857403131225,-0.07334059718152611,-0.5541180067194149
1660172562151180,0.01324483100633245,0.8042725261310748,0.4801709010452431,-0.3776832013347814,0.01118987574011246,0.007810237769237951,-0.007370044875724971,-0.07662281454779861,-0.5557207119923565
1660172562167167,-0.01959258411535814,0.8743419546807045,0.5109330891889829,-0.3882924204244525,0.01631104437789133,0.003226448189117962,-0.006414519021423997,-0.07934473256668489,-0.5576110187953487
1660172562183155,-0.1401998931868467,1.036331731136034,0.2924238956282901,-0.3945658351142296,0.01992091474552273,-0.003123664057885534,-0.005344764989293917,-0.081386596639816,-0.5597570644455648
1660172562199127,-0.1234760051880675,0.8186770428015562,0.4127870603494319,-0.3962965603416765,0.02071308051590644,-0.01060040922390686,-0.004178958449682706,-0.08276718586795506,-0.5620998326458104
1660172562215114,-0.08514534218356618,0.815869382772564,0.4340276188296333,-0.3934546724525716,0.01803453509272615,-0.01796247703021346,-0.00295636514177085,-0.08365671114056081,-0.5645503610838505
1660172562231102,-0.05877775234607441,0.8589608606088346,0.4573434042877853,-0.3861465027186667,0.01207257528812017,-0.02410192283715328,-0.001728869381751878,-0.08430694706496039,-0.5670015522269534
1660172562247089,-0.05194171053635444,0.8802014190890368,0.4583199816891739,-0.3746863510991326,0.003491341910701599,-0.02856773808762211,-0.0005486929268582472,-0.08497898114390881,-0.5693439009881497
1660172562263076,-0.07037460898756409,0.8510261692225525,0.4273136491950869,-0.359760576598101,-0.00671867354405881,-0.03151525473917955,0.0005422172031617992,-0.08589227083204483,-0.5714803780388276
1660172562279064,-0.09576562142366685,0.824414435034714,0.4046082246128027,-0.3425867014752728,-0.01736196451006371,-0.03346404237974607,0.001519747940072455,-0.08716880456859281,-0.573343808665561
1660172562295051,-0.09991607537956826,0.826123445487144,0.4112001220721755,-0.3249779361940738,-0.02716070692328728,-0.03509897649540712,0.002381726519715541,-0.08885024002426285,-0.5749035086311016
1660172562311039,-0.07940794995040834,0.827832455939574,0.4530708781567103,-0.3092692096546598,-0.03462609584558805,-0.03713635056229001,0.003150739421581108,-0.09095224957251616,-0.576165327122021
1660172562327026,-0.1292133974212253,0.5493858243686578,0.4450141145952546,-0.2980241963093046,-0.03828841080279841,-0.04015202054254509,0.003875028650159805,-0.09340968822506299,-0.5771868990968906
1660172562343013,-0.09246967269398043,0.7560540169375143,0.4142519264515148,-0.293565084181103,-0.03756193258994048,-0.04426505681476618,0.004619851679841048,-0.09604377460078965,-0.5780843661764574
1660172562359001,-0.02825970855268167,0.9170672159914552,0.435248340581369,-0.2974471369286093,-0.03302327029877399,-0.0489646167751258,0.005448964587914998,-0.09870251787368037,-0.5790014048286596
1660172562374988,0.01068131532768746,0.9844510566872664,0.4530708781567103,-0.309871033324785,-0.02560152501580824,-0.05332069069321491,0.006409938009265832,-0.101381504969465,-0.5800698593738359
1660172562390976,0.02581826504921025,0.9665064469367515,0.4625925078202489,-0.329196385480938,-0.01607011777363625,-0.05622071740029845,0.007530392396810893,-0.1041166731882546,-0.5814010308091876
1660172562406963,0.01654077973601886,1.058793011367971,0.4697947661554895,-0.3518935928774795,-0.005374141290223216,-0.05634296677567751,0.008816323770296744,-0.1068652413116639,-0.5830769183984597
1660172562422950,0.07672236209658934,1.309407186999313,0.4531929503318839,-0.3730318294688381,0.005245726199050135,-0.05203414673840671,0.01024670433668204,-0.1095850368730677,-0.5851094732034923
1660172562438938,0.1128557259479663,1.243488212405585,0.5247272449835965,-0.3871885420023208,0.01447231176030441,-0.04147218826794934,0.01176890095295474,-0.1122618780349964,-0.5874195086892559
1660172562454925,0.08404669260700359,1.220172426947433,0.4546578164339667,-0.3896498541568124,0.02096320972051604,-0.02367483295969494,0.01330064862687139,-0.1147658406176921,-0.5898671698368925
1660172562470913,0.03350881208514522,0.9197528038452738,0.4674753948271917,-0.3776952086241396,0.02319615125363574,0.0002103482177996698,0.01474049904913003,-0.1168397084643939,-0.5922822371768914
1660172562486900,0.07721065079728362,-0.8421149004348822,0.6980697337300681,-0.3512983483308803,0.01917701843498321,0.02707436796246933,0.01597965906875518,-0.1182800555448168,-0.5944731693749055
1660172562502887,0.001525902189669637,0.3881284809643706,0.651438162813764,-0.3126242176688977,0.00685351936065519,0.05334122075379246,0.0169080199415327,-0.1190866631175256,-0.5962381796368715
1660172562518768,-0.1568017090104523,0.718577859159228,0.4220645456626233,-0.2650524017179917,-0.01429797059215969,0.07594187315320176,0.01742417291222519,-0.1194551727687876,-0.5973903251601739
1660172562534755,-0.2412756542305639,0.6602273594262611,0.4212100404364083,-0.2126845809572858,-0.04226869835020242,0.09242857936307378,0.0174590207858333,-0.1197296214613021,-0.5977766065369505
1660172562550742,-0.2843671320668344,0.6383764400701919,0.3921568627450984,-0.1597874913278735,-0.07345438628964525,0.1012607673368308,0.01699825557288637,-0.1203592505499835,-0.5972876181563004
1660172562566729,-0.2638590066376745,0.7862058442053863,0.3692072938124662,-0.1099806788257456,-0.1040722036413987,0.102328432142414,0.01608529702418402,-0.1217335448413008,-0.5958825497438618
1660172562582716,-0.2119783321889068,0.9032730601968417,0.3745784695201033,-0.06599346392949063,-0.1304290747902266,0.09682708864557835,0.01481096813408776,-0.1239905894149002,-0.5936137925213363
1660172562598703,-0.1892729076066226,0.5382772564278628,0.4218204013122762,-0.02976350797229897,-0.149073492679546,0.08656479765226602,0.01330353754461211,-0.1269769430648136,-0.5906232264196595
1660172562614689,-0.2160067139696347,0.4431830319676511,0.2829022659647515,-0.002539589408220355,-0.1581806820155838,0.07368739218778075,0.01171198859176513,-0.1303402721892001,-0.5871160750508246
1660172562630676,-0.06854352635996053,0.7588616769665064,0.3357595178149078,0.01466072242148949,-0.1585917917562766,0.06073412090793777,0.01017337036363275,-0.1336635138392508,-0.5833297893855908
1660172562646663,-0.009826810101472461,0.9151140611886781,0.3471122301060499,0.02080974604588739,-0.152731645083738,0.05000285820956841,0.008782762293362226,-0.1366619190027346,-0.5794883418068172
1660172562662650,0.02972457465476452,0.9588158999008165,0.436102845807584,0.01535553007967089,-0.1428902384857694,0.04258293129806356,0.007589046576009168,-0.1393248776245424,-0.5757621082645384
1660172562678637,0.09271381704432713,1.089311055161364,0.4841992828259709,-0.00119449501713105,-0.1307138939770996,0.03843259375808116,0.006609666032956013,-0.1417865087778829,-0.5722856004640874
1660172562694624,0.1120012207217513,1.089677271686885,0.4940871290150302,-0.02703228887413768,-0.117318684406781,0.03716612001589483,0.0058446595803221,-0.1441288192662707,-0.5691884928086577
1660172562710611,0.118348973830777,1.214679179064622,0.4638132295719846,-0.05915064026906625,-0.1032913655619224,0.03832566650997512,0.005285667436912059,-0.1463535749764169,-0.5665840468599405
1660172562726598,0.1306782635233086,1.196124208438239,0.4210879682612347,-0.09376281993638934,-0.08892420116756217,0.0415055365755279,0.004921717431500378,-0.1483884337597695,-0.5645524241984704
1660172562742585,0.1492332341496914,1.107133592736705,0.4359807736324104,-0.1269098196880631,-0.07473626452628737,0.04678770738622357,0.004737533078585574,-0.1500581012295445,-0.5631408808843649
1660172562758572,0.174380102235447,1.102738994430457,0.4677195391775388,-0.1550980418037829,-0.06185138014291067,0.0545473257973591,0.004704646761561911,-0.1511571345683785,-0.5623474184657372
1660172562774559,0.1027237354085599,1.006546120393683,0.4370794232089725,-0.1758270980416623,-0.05167823952268279,0.06445695681123399,0.00477687032598887,-0.1515762030651981,-0.5620999434687109
1660172562790546,0.08783093003738429,0.8616464484626531,0.5180132753490501,-0.1878715867709028,-0.04514875355561925,0.0751315399085636,0.004898660253194274,-0.1513104435618342,-0.5622736803978228
1660172562806532,0.0222781719691767,0.3722590981918055,0.6044403753719383,-0.1912502337555634,-0.04277529689932852,0.08494343698008078,0.005016522079540239,-0.1504106043153182,-0.5627252008955721
1660172562822519,0.04022278171969162,1.033646143282215,0.4898146028839552,-0.1869403863415333,-0.04516694855098004,0.09272965891000157,0.005080352459714848,-0.1490293004863315,-0.5632972346858701
1660172562838409,-0.1188372625314718,0.9160906385900667,0.3303883421072706,-0.1765527898650207,-0.0524284382647278,0.09769748035501712,0.005042917814708964,-0.1474650972228791,-0.5638189265117429
1660172562854395,-0.09210345616845972,0.8302738994430454,0.3529716945143813,-0.1621437687087691,-0.06323340322068254,0.09927710005017075,0.004870885435824493,-0.1460509329893761,-0.5641422680537014
1660172562870382,-0.03875791561760877,0.9064469367513546,0.3826352330815599,-0.1460491110988968,-0.07530048101512386,0.09731209967551269,0.004558806018269575,-0.145020367209051,-0.5641792470251663
1660172562886368,-0.03155565728236809,0.9256122682536052,0.392278934920272,-0.1306599102288814,-0.08644898092799977,0.09207921156826662,0.004131645846549301,-0.1445332503203071,-0.5638942594296454
1660172562902355,-0.0640268558785384,0.9533226520180058,0.3606622415503162,-0.1182603879757453,-0.09461216682933725,0.08395495225505804,0.003641170831703931,-0.1446897322432973,-0.5632983728501065
1660172562918341,-0.08392462043183047,0.8882581826504925,0.3726253147173262,-0.110834214085821,-0.09759197228702818,0.07333801487485789,0.003165585047513912,-0.1453571005901174,-0.562490449113365
1660172562934328,-0.09991607537956826,0.4113221942473491,0.3629816128786141,-0.1097912620563618,-0.09423705202192498,0.06124793760728905,0.00280062549596854,-0.1461017402664216,-0.5616692395973406
1660172562950314,0.007507438773174613,0.8963149462119482,0.3131761654077971,-0.1157896152274079,-0.08593883899394239,0.04986786645911984,0.002627565784351492,-0.1464401017439333,-0.5610591635193758
1660172562966301,0.05731288624399156,1.120439459830624,0.3513847562371248,-0.1284092030167574,-0.07579418160342521,0.04181719911652094,0.002677392812736535,-0.1461693391732187,-0.5608083850293533
1660172562982287,0.06939803158617508,1.154619668879225,0.4026550698100255,-0.145691259912283,-0.0662274600013236,0.03860229811348618,0.002926360934256837,-0.1454274629178317,-0.5609531820977998
1660172562998273,0.04986648355840373,1.093827725642786,0.4553902494850082,-0.1642289949235806,-0.05826760910269049,0.04029610143287025,0.003320502642754106,-0.1444414516017944,-0.5614648241364366
1660172563014260,0.1076066224155028,1.238483253223468,0.4818799114976731,-0.1798631278455096,-0.05239800516060562,0.04665623741355744,0.00379606545634818,-0.1433403809448651,-0.5622830902016959
1660172563030246,0.1074845502403292,1.097611963073167,0.4755321583886474,-0.1885907495902989,-0.0488581535371278,0.05766316042341727,0.004285343909165254,-0.1421783635032235,-0.5633043015117731
1660172563046233,0.0432745860990309,0.9357442587930116,0.4054627298390177,-0.1875467937943141,-0.04761237561713609,0.07289061034135767,0.004721003464760686,-0.1409740158702291,-0.5643806078730725
1660172563062219,0.02703898680094596,0.9145037003128103,0.416449225604639,-0.1757674076369455,-0.04886304416385089,0.09101470895913737,0.005041547434804401,-0.1396355574025824,-0.5653644378391267
1660172563078206,-0.06927595941100195,-0.2905928130006865,0.5965056839856562,-0.1543168118524015,-0.05354270173964244,0.1101289377794236,0.005190522798535038,-0.1379542190141058,-0.5661437841694191
1660172563094192,-0.03350881208514522,0.5191119249256122,0.5130083161669337,-0.1257436121422425,-0.06298172272622218,0.1282610746984296,0.005111291806433905,-0.1358139047019808,-0.5666199174709975
1660172563110179,-0.1456931410696574,0.787426565957122,0.4306095979247733,-0.09334629564109262,-0.07770487101873425,0.1434790862182965,0.00474995263447409,-0.1333476932212035,-0.566687559900769
1660172563126165,-0.1843900205996793,0.8931410696574353,0.4015564202334634,-0.06060543115928389,-0.09641149417313351,0.1539297261389025,0.004073085885367155,-0.1308497476219474,-0.5662634907432524
1660172563142151,-0.1828030823224229,0.8532234683756768,0.3775082017242699,-0.03057902040913872,-0.1163752411591644,0.1583512446480261,0.003087594363826945,-0.1286185414286862,-0.565319387275609
1660172563158050,-0.1651026169222551,0.8448004882887004,0.3528496223392077,-0.005275243387834604,-0.1348365087040206,0.1566197923548132,0.001843894120934805,-0.1268512532535871,-0.5638899986274204
1660172563174037,-0.155458915083543,0.8814221408407725,0.3385671778438999,0.01451951512288405,-0.1497676314266833,0.1496493756336657,0.000422376094327099,-0.1255796453172642,-0.5620653051955826
1660172563190023,-0.1514305333028152,0.8955825131609068,0.3262378881513692,0.02894078643486583,-0.1596375300447443,0.1388435819239493,-0.001081206352515663,-0.1247170625709983,-0.5599600141018555
1660172563206009,-0.1991607537956819,0.7919432364385441,0.3234302281223771,0.03866049533947474,-0.1634630278144381,0.1256532922000878,-0.002565110681786569,-0.1242100633543615,-0.5576671439504183
1660172563221996,-0.164858472571908,0.6138399328603033,0.2797283894102387,0.04448506961411305,-0.1617148225020355,0.111596639225946,-0.003935920864313559,-0.1240696642443293,-0.5552477122251499
1660172563237982,-0.02789349202716096,0.9300068665598538,0.3744563973449297,0.04697242263764422,-0.1566044394629849,0.09852126396551936,-0.005132258009287166,-0.1242263468857841,-0.5527672443509151
1660172563253969,-0.0007934691386282111,1.077714198519875,0.3953307392996113,0.0464033962189575,-0.150612788631023,0.08820225573988399,-0.006139728902866817,-0.1244374646894382,-0.5503223536166297
1660172563269955,-0.04486152437628732,1.020584420538643,0.3665217059586476,0.04301971506902311,-0.1448422570085544,0.08140189225924874,-0.006978898498964936,-0.1243147534011517,-0.5480372863451791
1660172563285942,-0.06671244373235696,0.8903334096284432,0.3799496452277413,0.0371126571286482,-0.1391573156900222,0.07778755368432266,-0.007678733804542814,-0.1235355481571244,-0.5460152277715896
1660172563301928,-0.04083314259555948,0.9401388570992602,0.3726253147173262,0.02900779540316043,-0.1332942228420594,0.07678844965971091,-0.008261810025755548,-0.12213038584736,-0.54427296491863
1660172563317915,-0.02313267719539169,0.9956816968032349,0.3624933241779198,0.01909869352542407,-0.1272601257810022,0.078106508200759,-0.008745440156004926,-0.1203993130299627,-0.5427632653535994
1660172563333901,0.0814831769283586,1.039993896391241,0.421576256961929,0.007868191062066243,-0.1212032145029445,0.08158891821204425,-0.009146203187086376,-0.1185717820159597,-0.5414522789001643
1660172563349887,0.1237201495384141,1.087602044708934,0.4712596322575724,-0.004145636834683622,-0.1153604271531528,0.0869991928404506,-0.009481784636711586,-0.1166872824201128,-0.5403425919304035
1660172563365874,0.08685435263599572,0.9201190203707945,0.4635690852216374,-0.01641152880454726,-0.1098348518596655,0.09390508927950221,-0.009769548505669676,-0.1147306289790723,-0.5394416903090469
1660172563381860,0.08355840390630931,0.803662165255207,0.5237506675822079,-0.02845773966183972,-0.1044467524179533,0.1017911150394694,-0.01002253647577273,-0.1126434899264608,-0.5387589814934469
1660172563397847,0.06121919584954583,1.005447470817121,0.5335164415960936,-0.03990296654361337,-0.09927337578072562,0.1101532450459209,-0.01024900335068776,-0.1102025616431506,-0.5383298160834499
1660172563413833,-0.0724498359655148,1.042313267719539,0.2962081330586708,-0.05044192572655508,-0.09514695431666828,0.1182742837318529,-0.01045862259012397,-0.1071418258187773,-0.5381905095640532
1660172563429820,-0.07257190814068837,0.8317387655451283,0.3895933470664534,-0.05972698389724812,-0.0930728284320563,0.1253033045976485,-0.01066753007386097,-0.103458224802877,-0.5383207701483298
1660172563445806,-0.04766918440527945,0.9490501258869308,0.3784847791256585,-0.06722779815085868,-0.09332774563694871,0.1309063164763428,-0.01089601030248821,-0.09943444346518157,-0.5386433304202858
1660172563461793,0.008728160524910322,1.024856946669718,0.3894712748912799,-0.07224043300244819,-0.09543369685741565,0.1353700041978441,-0.01116277218407526,-0.09535988153230623,-0.539075757770899
1660172563477722,0.007019150072480329,0.9936064698252842,0.3792172121766999,-0.07403428731060874,-0.09869101187760587,0.1388477219128186,-0.0114801357306059,-0.09135516713492296,-0.5395571548515835
1660172563493708,-0.02203402761882955,0.9574731059739072,0.3620050354772255,-0.07203431540242622,-0.1025081611821685,0.1410203202015907,-0.01185082366626942,-0.08740796059908996,-0.5400388480429872
1660172563509694,-0.02484168764782169,0.9417257953765166,0.3495536736095213,-0.0660116378380753,-0.1064121866174012,0.1414989433741401,-0.01226736368836443,-0.08343885929394008,-0.540475025440794
1660172563525680,-0.02655069810025168,0.8844739452201118,0.3682307164110776,-0.05625661617909404,-0.1099491840497585,0.1399748126540368,-0.01271308269426143,-0.07937072175447103,-0.5408175605265794
1660172563541666,-0.09796292057679112,0.5022659647516594,0.3198901350423435,-0.04363380971062637,-0.1128715935332611,0.1361225497493037,-0.01316392049103286,-0.07525734679379412,-0.5410070207383509
1660172563557652,-0.0432745860990309,0.8217288471808954,0.3666437781338212,-0.02947744695540235,-0.1154767957490215,0.1299440001287296,-0.01359487481286846,-0.07129243483055636,-0.5409842543737702
1660172563573638,-0.03961242084382377,0.9673609521629665,0.3330739299610892,-0.01539202493232792,-0.1182441371459859,0.1220447119447847,-0.01398875860906249,-0.06765295975859779,-0.5407199264533524
1660172563589624,-0.07489127946898622,0.9608911268787672,0.2859540703440908,-0.002995918816903576,-0.1209728613972837,0.1132884634123823,-0.01433619467180567,-0.06444889017859269,-0.5402209579243894
1660172563605610,-0.09539940489814613,0.8780041199359125,0.2589761196307316,0.006351879784980434,-0.1227095698145197,0.104555487033053,-0.0146267867718544,-0.06180853302682152,-0.5395158096875213
1660172563621595,-0.09942778667887398,0.832959487296864,0.2683756771190966,0.01176910856996251,-0.122551012801996,0.0969388875611765,-0.01484516870786318,-0.05979267543486071,-0.5386576924988296
1660172563637581,-0.06659037155718339,0.836377508201724,0.2760662241550316,0.0129704706632251,-0.120273431446592,0.0916709506553937,-0.01497746607427892,-0.05822078741332956,-0.5377326964255752
1660172563653567,0.02459754329747454,0.9464866102082858,0.3395437552452885,0.01028246271681487,-0.1164335716661798,0.08974540477251172,-0.01502101261810272,-0.05679003373772318,-0.5368348215821744
1660172563669553,0.2089265278095676,1.232623788815137,0.4641794460975053,0.004559305893285308,-0.1120104971261414,0.09167655959900356,-0.01498981163131228,-0.05528860831813048,-0.5360355958586563
1660172563685539,0.3297779812314028,1.248126955062181,0.5161821927214465,-0.003021267816409842,-0.1075432364859545,0.09713541779094469,-0.01490912382817643,-0.05363206967945821,-0.5353764576891484
1660172563701525,0.1242084382391084,0.8509040970473789,0.3649347676813912,-0.01128039484810302,-0.102619017119779,0.1047487564891553,-0.01479827678659466,-0.05183812788107643,-0.5348712588560918
1660172563717511,0.08160524910353217,0.7647211413748378,0.3349050125886928,-0.01931752422475688,-0.09676348287856838,0.1128687733143215,-0.01465837071597898,-0.0499800496466676,-0.5345146599431727
1660172563733497,0.1240863660639349,0.5209430075532158,0.5203326466773479,-0.026642477726887,-0.09076415368537545,0.1203391531650477,-0.0144814623484172,-0.04807542686361634,-0.5342980446447974
1660172563749483,0.03619439993896378,1.083573662928206,0.3143968871595328,-0.03312367817871607,-0.08648565030359501,0.1260234925445645,-0.01426881501942,-0.04607346715725413,-0.5342158775084229
1660172563765469,-0.03900205996795592,1.047928587777523,0.2838788433661401,-0.03867404984470883,-0.08534320288692603,0.1285025322257164,-0.0140341960142239,-0.0439657442424885,-0.5342590033501023
1660172563781455,-0.04522774090180803,1.046952010376135,0.2929121843289844,-0.04292105793377348,-0.08731961299937302,0.1271102771166821,-0.01379272184216346,-0.041841573630418,-0.5344078860704186
1660172563797424,0.03131151293202095,1.050370031280995,0.2938887617303729,-0.04518746959515063,-0.09133847098862484,0.12258397854416,-0.01355222318931947,-0.03981944628012775,-0.5346323165442002
1660172563813410,0.09124895094224428,1.024490730144198,0.3299000534065764,-0.04469958345677531,-0.0961572951511025,0.1163133010199613,-0.0133129794261901,-0.0379943376197609,-0.5348910748546033
1660172563829396,0.1026016632333864,1.014969100480659,0.3360036621652549,-0.04087455153518686,-0.1007702141100327,0.1095118574324371,-0.01307011282298913,-0.03648178520531957,-0.5351294956573601
1660172563845382,0.09063859006637642,0.9906767376211185,0.3226977950713357,-0.03364308829348586,-0.1042951400884335,0.1029048812107463,-0.01281342708768928,-0.03544396833695707,-0.5352842754846293
1660172563861368,0.02752727550164025,0.458564126039521,0.2737468528267337,-0.02367486342839479,-0.1061209087612932,0.09668581507300962,-0.01252606001038147,-0.03500389642446376,-0.5352995619689708
1660172563877354,0.02288853284504455,0.695262073701076,0.3215991454947735,-0.01240484843665294,-0.106431443733963,0.09103406445271724,-0.01218968380974087,-0.03515941438765667,-0.5351436469627096
1660172563893340,0.09381246662088927,1.018020904859998,0.2888838025482565,-0.001840414824320296,-0.1060858984911838,0.08663603832449393,-0.01179666179869018,-0.03584635376491164,-0.5348149012501603
1660172563909326,0.12970168612192,1.050492103456168,0.29925993743801,0.005817794119701942,-0.1056038590461112,0.08422301850473589,-0.01135458059796567,-0.03701700064618979,-0.5343428978186303
1660172563925312,0.117494468604562,0.939894712748913,0.3355153734645606,0.008598397717495192,-0.1046245300621799,0.08389397535368902,-0.01087544883669211,-0.03859379352044336,-0.5337912780598411
1660172563941298,0.08038452735179646,0.9291523613336388,0.3119554436560614,0.00512068534528032,-0.1025138276928182,0.08535877337100595,-0.01036361960643908,-0.04042044711241857,-0.5332551778307931
1660172563957284,0.08099488822766432,0.9340352483405816,0.2927901121538108,-0.005134510492685974,-0.09906700224124206,0.08852274087339271,-0.009816097440144462,-0.04232538291403861,-0.5328465661971808
1660172563973270,0.1514305333028156,0.9593041886015108,0.3556572823681998,-0.02169980178611539,-0.09457352700980783,0.09349444665444154,-0.009230531499030359,-0.04420495845776336,-0.5326740479851773
1660172563989256,0.2903486686503394,1.156328679331655,0.4840772106507973,-0.04316878727397978,-0.0895307136085482,0.1002226451032924,-0.0086102530579708,-0.04599524707520846,-0.5328291230034969
1660172564005241,0.4356145571068897,1.252033264667735,0.5554894331273363,-0.06740792593405656,-0.08420438877437746,0.1082754268601588,-0.007961949968618515,-0.04756023736637695,-0.5333815021284908
1660172564021227,0.3518730449378191,1.105424582284275,0.5252155336842907,-0.09190731938653987,-0.07824753533338792,0.1167952022557422,-0.007286591994903298,-0.04870911266044357,-0.5343699543830025
1660172564037213,0.1077286945906764,0.8894789044022282,0.2317540245670253,-0.114187439368175,-0.07105698621267141,0.1246767496682349,-0.006570716715609555,-0.04936076288673839,-0.5357863214017714
1660172564053199,-0.07049668116273766,0.7073472190432595,0.2644693675135423,-0.1321516176603727,-0.06305449828978464,0.1312173299791779,-0.005792373580356485,-0.04956980422091487,-0.5375755072916606
1660172564069185,0.07916380560006075,0.9556420233463037,0.5487754634927899,-0.1442998755995506,-0.05631220939978679,0.1365086931757225,-0.004944444778997854,-0.04942389249108804,-0.5396514293790327
1660172564085171,0.1853665980010684,1.004226749065385,0.5573205157549399,-0.1497356938750396,-0.05305936277632153,0.1406330644275178,-0.004050307174568058,-0.04901405900234695,-0.5419094511210676
1660172564101157,-0.001525902189669637,0.8910658426794846,0.4351262684061954,-0.148088719797763,-0.05401101477701128,0.1429566109753175,-0.003151530050556912,-0.04844407133630157,-0.5442348214869739
1660172564117065,-0.05816739147020655,0.9663843747615779,0.3125658045319293,-0.1394860476648513,-0.05893417668441164,0.1427554318717209,-0.002287595888155129,-0.04785055889849725,-0.5465089554498322
1660172564133051,-0.0499885557335773,0.7689936675059128,0.3642023346303498,-0.1245570059743302,-0.06769108603247397,0.1398512170925298,-0.0014918183120568,-0.0474770952652882,-0.5486107834226667
1660172564149036,-0.1094377050431068,0.7903562981612877,0.3908140688181891,-0.1045541767297483,-0.07964283807606548,0.134454854921428,-0.0007922727629632957,-0.04772068115051942,-0.5504208758902142
1660172564165022,-0.1079728389410239,0.8271000228885326,0.3633478294041348,-0.08153796752567774,-0.09288980928841688,0.1269938950719678,-0.0002020162708873946,-0.0489773507747541,-0.5518429720288742
1660172564181007,-0.1005264362554361,0.863965819790951,0.3443045700770577,-0.05834151411607781,-0.1047062769379927,0.1180222118584271,0.000293997485772767,-0.05133860224220223,-0.5528392430788927
1660172564196992,-0.1522850385290302,0.5379110399023421,0.30096894789044,-0.03821714816575517,-0.1125254503217194,0.1080274974692167,0.00074330191189255,-0.05450555457740536,-0.5534502989521111
1660172564212978,-0.04644846265354374,0.7291981383993287,0.3215991454947735,-0.02435480733634435,-0.1149243350791528,0.09760070752549979,0.001216749062710615,-0.05806998543065566,-0.5537802714123827
1660172564228963,0.05011062790875087,0.9566186007476922,0.3602960250247955,-0.01941075330178808,-0.112074424866425,0.08777921105874935,0.001787347404788418,-0.06184101934457781,-0.5539625794518238
1660172564244949,0.06622415503166224,1.08198672465095,0.3236743724727242,-0.02493841005320518,-0.1050591017889624,0.07972503486527369,0.002510621013957418,-0.06592856860020731,-0.5541324568475534
1660172564260934,0.07318226901655578,1.055130846112764,0.3522392614633398,-0.04079006465575936,-0.09491491936497048,0.07410811340296601,0.003420092574206145,-0.07048252082205851,-0.5544269956107545
1660172564276920,0.1110246433203628,1.031448844129091,0.4339055466544597,-0.06486784937718879,-0.0826218589010953,0.07120198738804141,0.004531557970907507,-0.07540147435435551,-0.5549911037190329
1660172564292905,0.1377584496833757,1.130815594720379,0.4734569314106967,-0.09337596179668001,-0.06951350994005913,0.07144996848361804,0.005841936915826747,-0.08043942894989853,-0.5559430763298361
1660172564308891,0.1842679484245062,1.233844510566873,0.4804150453955902,-0.1214500812292232,-0.0571544820571503,0.07572712389342062,0.007322816142190748,-0.08537968233504238,-0.557333751435742
1660172564324876,0.2417639429312581,1.173785000381476,0.5069047074082551,-0.1440459969015887,-0.04692745687225139,0.0850064670677935,0.008917987375191824,-0.08996050533700334,-0.5591465399876752
1660172564340862,0.1277485313191429,1.060746166170748,0.3980163271534298,-0.1569766148725306,-0.03988941643252727,0.0995549492883958,0.01054939064275667,-0.09388001982251162,-0.5613038246207738
1660172564356847,-0.0222781719691767,0.6736552986953539,0.381170366979477,-0.1578290226159522,-0.03703421258097665,0.1184678071713744,0.01212731074329058,-0.09699630480115701,-0.5636573897840366
1660172564372833,0.03228809033340951,0.7964599069199663,0.6017547875181197,-0.1463763541638814,-0.03959090428032802,0.1398659353530334,0.01355775930268647,-0.09939207528465012,-0.5660060238519039
1660172564388818,-0.01702906843671315,-0.02423132677195383,0.6829327840085453,-0.1243307454037688,-0.04865225865254764,0.161176355389803,0.01474845178014441,-0.1012725405724503,-0.5681430852019771
1660172564404804,-0.1427634088654917,0.5714808880750741,0.4933546959639887,-0.09460886656389038,-0.06425960726179099,0.1796885182638519,0.01562035183451383,-0.1028630135113451,-0.5698988467736884
1660172564420789,-0.2014801251239797,0.8063477531090255,0.3722590981918055,-0.060510416855305,-0.08502136715552114,0.1934189076392194,0.01612251693257055,-0.1043436138042145,-0.5711635244392039
1660172564436706,-0.1613183794918744,0.8402838178072782,0.4201113908598462,-0.02518068676316172,-0.1085418829713571,0.2013497668708423,0.0162422055945784,-0.1058928600090605,-0.571878757737652
1660172564452692,-0.1549706263828488,0.8676279850461581,0.4142519264515148,0.008663352789730801,-0.1319584029344281,0.2031400283465998,0.01600849886311803,-0.107698473165114,-0.5720277592023395
1660172564468677,-0.1676661326009001,0.877027542534524,0.3967956054016941,0.03888937147737782,-0.1522905243802897,0.1989639021387757,0.01549158711439297,-0.1098704080023969,-0.5716415052812875
1660172564484663,-0.300114442664225,0.604806591897459,0.2868085755703058,0.06401105515602822,-0.1669525925340783,0.1893706169711716,0.01479729715328505,-0.1124042877626553,-0.5707964070893019
1660172564500648,-0.1243305104142824,0.5896696421759362,0.3777523460746171,0.08307140104760199,-0.1746757259912176,0.1754346260052336,0.01405164539043399,-0.115224179800074,-0.5695984943634929
1660172564516634,-0.03338673990997165,0.8196536202029447,0.4199893186846726,0.0952772189156499,-0.1760919705699091,0.1592128519683003,0.01337252806345813,-0.1182286166155993,-0.5681699566280057
1660172564532619,-0.02728313115129311,1.057206073090715,0.3203784237430378,0.09981650704920886,-0.172889163182602,0.1432841137670322,0.01284323198612183,-0.1213720510601011,-0.5666307308469356
1660172564548605,-0.06610208285648911,1.027908751049058,0.2935225452048522,0.09618187226387249,-0.166264851993141,0.1294474366909106,0.01250955779411174,-0.1246971684963268,-0.5650879488430636
1660172564564590,-0.09600976577401399,0.9301289387350273,0.3108567940794993,0.0845505843204119,-0.1565923116705737,0.1183922819058413,0.01239649067887017,-0.1281831302113744,-0.563661419197481
1660172564580576,-0.0762340733958955,0.9190203707942324,0.3389333943694206,0.06592028655037176,-0.1443536523573357,0.1105312896328985,0.01251870578507834,-0.1316238313119229,-0.5625026250248456
1660172564596561,0.0147096971084153,1.017288471808957,0.4108339055466548,0.04213477644689805,-0.1307978744452609,0.106487384820443,0.01287476867038647,-0.1347451344476877,-0.5617591174699239
1660172564612547,0.1694972152285041,1.30244907301442,0.5036087586785687,0.01583198157983967,-0.1176039308588256,0.1068919922508454,0.01343796778080185,-0.1374401807954048,-0.5615067202673184
1660172564628532,0.2875410086213472,1.269611657892729,0.5691615167467763,-0.009796171041536877,-0.1059853302032441,0.1120694158855837,0.01415775180087154,-0.1397613718715227,-0.5617373172961363
1660172564644518,0.1903715571831848,1.177203021286336,0.4939650568398566,-0.03153670790379981,-0.09612667457603587,0.1215397413287655,0.01497452278084919,-0.141716724190331,-0.5624022542443651
1660172564660503,-0.02252231631952384,0.7854734111543449,0.3622491798275727,-0.04686588147728937,-0.08764541112684493,0.13367865713633,0.01583848213834834,-0.1432615620238505,-0.5634226070165849
1660172564676489,-0.06622415503166268,0.578927290760662,0.5493858243686578,-0.05443178070894531,-0.08087141465745468,0.1464104963544773,0.01671500168922656,-0.1444393624179943,-0.5646726540142281
1660172564692474,0.06451514457923224,0.6009002822919047,0.7459220263981079,-0.05404132872660239,-0.077715154131378,0.1582736880427109,0.01756808183359633,-0.1453784522582092,-0.5660006946593725
1660172564708459,-0.1397116044861524,0.8130617227435719,0.4547798886091403,-0.04624655029164761,-0.08080432900239486,0.1685628946912921,0.01833894581104067,-0.1461928251354108,-0.5672690209516006
1660172564724445,-0.2042877851529719,0.8281986724650947,0.4270695048447397,-0.03191918338275385,-0.09139022057728331,0.1769022133577216,0.0189462573160654,-0.1469083257018651,-0.5683793861463677
1660172564740430,-0.1680323491264208,0.7949950408178834,0.4782177462424659,-0.0121906635024304,-0.108279758261973,0.18301243515811,0.01931087838272319,-0.1474966854430692,-0.5692653097721975
1660172564756378,-0.168276493476768,0.8030518043793391,0.4827344167238881,0.01143467776716056,-0.1285959868308738,0.1866783236134714,0.0193838196164945,-0.1480026980664076,-0.569859764915934
1660172564772363,-0.1765774013885708,0.8037842374303805,0.4429388876173039,0.03708146459548543,-0.1488505628959311,0.1878222704319452,0.01916133067166988,-0.148509103931059,-0.5701066464303723
1660172564788348,-0.1913481345845733,0.8080567635614555,0.4334172579537654,0.06259522026471691,-0.165577930147458,0.1864422367462315,0.01868812510623141,-0.1490251656291601,-0.569993914204318
1660172564804333,-0.1649805447470816,0.2464026855878538,0.4260929274433511,0.08573247739596015,-0.1763151547191559,0.1825100231540571,0.01805008355393328,-0.1495202244845771,-0.5695489507050407
1660172564820318,-0.01202410925459674,0.6769512474250403,0.4115663385976962,0.1042830569374093,-0.1806338803285769,0.1763638995762346,0.01735185957053538,-0.149981500691451,-0.5688262932845172
1660172564836303,0.01287861448081173,0.9213397421225302,0.4026550698100255,0.1161117130127958,-0.1798402296633023,0.1690225045312482,0.016686590860464,-0.150433489842045,-0.5679035866912558
1660172564852288,0.02935835812924381,1.205645838101778,0.2858319981689172,0.1195028020586863,-0.1754943167486255,0.1614739270126448,0.01611953387226318,-0.150943972182775,-0.5668769634700221
1660172564868273,0.004333562218661768,1.08369573510338,0.3226977950713357,0.1137033629022522,-0.1683807359974401,0.1538818678942162,0.01569510459773438,-0.1515616483531033,-0.5658676307667592
1660172564884258,-0.005920500495918191,0.9881132219424735,0.3678644998855569,0.09918138004616417,-0.1587166100965327,0.1460860963803509,0.01545078192495897,-0.1522651299596242,-0.5650187058360749
1660172564900243,0.04937819485770945,1.069291218432898,0.3717708094911112,0.0775070576909191,-0.1468789587367877,0.1386215131083152,0.01541845100787798,-0.1529737398936499,-0.5644727558194794
1660172564916228,0.09808499275196425,1.047318226901655,0.4125429159990848,0.05106992910690217,-0.133643258633152,0.1328031491610826,0.01561463730220308,-0.1535920359619686,-0.5643425292669477
1660172564932213,0.1343404287785157,1.038162813763638,0.4131532768749526,0.02277726839137341,-0.1199673541902308,0.1301129659156453,0.01603269602748783,-0.1540895041069076,-0.5646778342509642
1660172564948198,0.1294575417715729,0.9644312199588008,0.4159609369039448,-0.004278819230527267,-0.1070336333061937,0.1316878748417674,0.01664070475057878,-0.1544894928379028,-0.5654635800175838
1660172564964183,0.1510643167772949,1.152300297550927,0.4274357213702604,-0.02718853727275362,-0.09628772690680737,0.137923005951368,0.01738242765649937,-0.1548316018871523,-0.5666323291090802
1660172564980168,0.2048981460288397,1.099687190051117,0.4799267566948959,-0.04358047281560123,-0.08893283869646768,0.148395961679817,0.01818340232468985,-0.1551835077613763,-0.56806971607402
1660172564996153,0.195986877241169,1.067826352330815,0.5731898985275041,-0.05195151135719833,-0.08540426104333111,0.1621827828810946,0.0189632077363075,-0.1555731907574006,-0.5696449303140269
1660172565012138,0.0205691615167467,0.9584496833752958,0.4105897611963076,-0.05197051480246779,-0.08517844022614426,0.1777983111955372,0.01965166989462148,-0.1559483590428967,-0.5712380631342689
1660172565028123,-0.1519188220035095,0.4773632410162509,0.4212100404364083,-0.04457903438291941,-0.08708804011206117,0.1930847986743972,0.02020489277593353,-0.1562616559438529,-0.5727377515273642
1660172565044108,0.1195696955825127,0.2954757000076293,0.7591058213168536,-0.03160296589538782,-0.09056187557106443,0.2060840119178311,0.0206074757761132,-0.1565380174865989,-0.5740411267675372
1660172565060093,-0.1095597772182804,0.8122072175173569,0.4002136263065541,-0.01508498424223063,-0.09653117618064511,0.2159584943962239,0.02085269109365028,-0.1568423512497344,-0.5750709111680765
1660172565076049,-0.2029449912260626,0.8684824902723731,0.2982833600366215,0.003184461811859184,-0.1063203374039339,0.2226294005478627,0.02092183201144219,-0.1572384718611257,-0.5757848229180292
1660172565092034,-0.1516746776531623,0.8841077286945911,0.3383230334935527,0.02184255252485129,-0.1198541972230528,0.2259572577293013,0.02078839151606593,-0.1578019686447087,-0.5761642235069498
1660172565108019,-0.1189593347066453,0.9572289616235601,0.3978942549782563,0.04000192743752941,-0.1355536892224232,0.2257145938807621,0.0204387701598245,-0.1586287201029684,-0.576201393605079
1660172565124004,-0.139833676661326,0.9326924544136723,0.3768978408484021,0.05719386292017532,-0.151410718807708,0.2219807331357188,0.019884791436052,-0.1597561298538402,-0.5759119691820569
1660172565139989,-0.1121232928969254,0.9652857251850158,0.3562676432440677,0.07305331976470023,-0.1652500959805911,0.2150398108867357,0.01916578687387218,-0.1610921379477155,-0.5753504921006624
1660172565155974,-0.06756694895857196,1.002761882963302,0.3808041504539563,0.08694246464238624,-0.174371272397589,0.2049744844651894,0.01835338491257665,-0.1624802102933178,-0.574593786300074
1660172565171960,-0.1264057373922332,0.3853208209353784,0.3891050583657591,0.09784081092382067,-0.1764790276736798,0.1919516296790403,0.01755281996694476,-0.1638109240666871,-0.5737135881422643
1660172565187945,-0.132143129625391,0.5571984435797663,0.2881513694972151,0.1042656797307489,-0.1717235716535259,0.1771848371390932,0.01687866970151907,-0.1650674825848949,-0.572769297454483
1660172565203930,-0.01873807888914314,1.054398413061723,0.2650797283894102,0.1043178411857835,-0.1628915028626816,0.1629832078672475,0.01641109043337243,-0.1662955651714074,-0.571824292187738
1660172565219915,0.03131151293202095,1.216510261692226,0.31976806286717,0.09646360426939321,-0.152782572285846,0.151251597632654,0.0161747043162929,-0.1675490930348923,-0.5709640052080137
1660172565235900,0.01409933623254744,1.063797970550088,0.373235675593194,0.08051563229520442,-0.1421609205461324,0.1424769540736898,0.01615990348815971,-0.1688664771062914,-0.5702909457380059
1660172565251885,0.005432211795223907,0.9496604867627987,0.4054627298390177,0.05797890011506389,-0.1307625131584976,0.1366540583469484,0.01635171666631671,-0.1702593389288998,-0.5699043384404067
1660172565267870,0.05279621576256943,1.044144350347143,0.4225528343633176,0.03190541249221111,-0.1190926975163313,0.1344361911888194,0.01673093516807773,-0.1717088982283318,-0.5698748469379464
1660172565283855,0.1788967727168691,1.211383230334936,0.4533150225070575,0.006469793236926882,-0.1084347817100844,0.1370478007118804,0.01725847138684736,-0.1731989759775894,-0.5702124549856008
1660172565299840,0.2495765621423667,1.227618829633021,0.5515831235217821,-0.01376732235501288,-0.09997577448665605,0.1457180243568001,0.0178683280808114,-0.1747550158980423,-0.5708416062684681
1660172565315825,0.2317540245670253,1.23579766536965,0.4925001907377737,-0.02487886408230242,-0.09441318144256544,0.1609228464209933,0.01847464346178742,-0.1764206755264111,-0.5716105795622471
1660172565331810,-0.03070115205615309,0.8101319905394062,0.3220874341954678,-0.02463963459606647,-0.09197509667503956,0.1816379409574294,0.01898733920399992,-0.1782347671587743,-0.572320378152251
1660172565347795,-0.03387502861066594,0.6323949034866869,0.5265583276112,-0.01308454782524278,-0.09309423487788698,0.2057166788936667,0.0193244354249075,-0.1802436518705356,-0.5727573855064371
1660172565363780,0.04901197833218873,-0.2200350957503625,0.8096437018387119,0.007855620784293749,-0.09923797811287464,0.2308689333563648,0.01940851831800457,-0.1824404980484324,-0.5727509159155443
1660172565379765,-0.05206378271152801,0.4419623102159154,0.5917448691538869,0.03523454262533768,-0.1120428673672557,0.2548855837176914,0.01915864058913987,-0.1847340111197682,-0.5722113803465788
1660172565395691,-0.1810940718699929,0.8738536659800102,0.4391546501869232,0.06572070631875601,-0.1312281595825918,0.2755269824108235,0.01850222182675137,-0.1870409314245575,-0.5711119541350341
1660172565411676,-0.2052643625543604,0.8659189745937281,0.3986266880292977,0.09596850534816415,-0.1541053985803836,0.2908269583133775,0.01740403348424679,-0.1893142329306026,-0.5694769887073575
1660172565427661,-0.1530174715800716,0.9513694972152287,0.4152285038529033,0.1232351405349857,-0.1771491371689718,0.2996934149639401,0.01588408494977588,-0.1915095594250233,-0.5673816300178907
1660172565443646,-0.07684443427176335,1.028885328450446,0.4506294346532389,0.1458590048491768,-0.1971884379226481,0.3021697070390003,0.01401293023186775,-0.1935985215694077,-0.5649273472084064
1660172565459631,-0.08355840390630975,1.05671778439002,0.4391546501869232,0.1631681332873671,-0.2112487918165935,0.2987929024689783,0.01190134205858391,-0.195533252551464,-0.562233717200343
1660172565475616,-0.2924238956282901,0.2454261081864653,0.3605401693751427,0.175274396041117,-0.2172373919688771,0.2900842261221508,0.00969094335595015,-0.1971453107187283,-0.5594624716836154
1660172565491601,-0.1502098115510795,0.5882047760738534,0.3203784237430378,0.1826234306356563,-0.2159567275368093,0.2774124073544041,0.007524728252646151,-0.1981856106629763,-0.5567981240982762
1660172565507586,-0.03033493553063238,1.02900740062562,0.3981383993286034,0.1853614727101028,-0.2109233367096575,0.2635171763471161,0.005499340429906878,-0.1985135312845263,-0.5543753482016738
1660172565523571,-0.08429083695735118,1.129106584267949,0.356755931944762,0.1834714080828749,-0.2051573272537514,0.2508977574362555,0.003645197418861407,-0.1982433200219481,-0.5522215692263572
1660172565539556,-0.1662012664988173,0.9015640497444117,0.3355153734645606,0.1773049641898782,-0.1993078328397293,0.2402998869687317,0.001954336521390054,-0.1976976773034721,-0.5502732321332864
1660172565555541,-0.159731441214618,0.862256809338521,0.3416189822232392,0.1676765298306102,-0.1931594354924387,0.231507539323293,0.0004136918304562132,-0.1971644518379613,-0.548468731554
1660172565571526,-0.06378271152819126,1.099198901350423,0.4048523689631498,0.1557514325132474,-0.1872393935636366,0.2246079278664511,-0.0009914290996966323,-0.1967649526297452,-0.54679626793985
1660172565587511,0.1090714885175856,1.226642252231632,0.4899366750591287,0.1429270707147802,-0.1822226532911334,0.2198689965570108,-0.002285452045012998,-0.1964648798400026,-0.5452849719979708
1660172565603496,0.06317235065232296,1.100053406576638,0.4994583047226673,0.1305943977716467,-0.1778505951813003,0.2171528295211687,-0.003496193847808148,-0.1961762495890725,-0.5439627849685529
1660172565619481,-0.08612191958495474,0.8928969253070882,0.3226977950713357,0.1198130376307115,-0.1730417218957438,0.2157828063731591,-0.004638918220036422,-0.1959467462945312,-0.542785524116998
1660172565635466,-0.1331197070267796,0.6153047989623861,0.4761425192645152,0.1110864216877398,-0.1668578773349478,0.21477251824332,-0.00570823557928312,-0.1958723298462534,-0.5416790635699077
1660172565651451,-0.03997863736934448,0.7898680094605934,0.648020141908904,0.1043240976285721,-0.1596216261978586,0.213410904104578,-0.006687692741098827,-0.1959269051971187,-0.540616771320108
1660172565667436,-0.160585946440833,1.058670939192798,0.3303883421072706,0.09900115497672854,-0.1532639079326926,0.2117396983095111,-0.007573762088826253,-0.1960934626125556,-0.5395785890252398
1660172565683421,-0.1516746776531623,0.8697032120241088,0.4436713206683454,0.09451604280127957,-0.1500488343418423,0.2103080523860743,-0.008394334122999617,-0.1965103137428168,-0.5384974858475735
1660172565699406,-0.1831692988479436,0.934767681391623,0.4323186083772033,0.09051633338755438,-0.1507848546059974,0.2096524560999845,-0.009202922893090023,-0.1973763256430207,-0.5372908103643809
1660172565715332,-0.1582665751125352,0.9529564354924851,0.433539330128939,0.08696236774779535,-0.1545341500581757,0.2101086313410724,-0.01005563441913725,-0.1987371903022037,-0.5359345566986334
1660172565731316,-0.1273823147936217,0.9448996719310294,0.4204776073853669,0.08406032594486847,-0.1597163730329665,0.2117970022908607,-0.01099295857486905,-0.2003358402115632,-0.5345182510021435
1660172565747301,-0.1117570763714046,0.9616235599298086,0.424994277866789,0.08218045657328667,-0.1649968299351132,0.2145797601587587,-0.01203513011507157,-0.2017796615498565,-0.533181000600577
1660172565763285,-0.1083390554665447,0.9964141298542764,0.4403753719386589,0.0817088771104806,-0.1691799005993666,0.2178328258575206,-0.01318181866551197,-0.2028169048428369,-0.5320019532834486
1660172565779270,-0.1012588693064775,0.838086518654154,0.4393987945372704,0.08290388775523819,-0.170855371383493,0.2200747872936616,-0.01440623105208584,-0.2033047480988017,-0.5310141284046245
1660172565795254,-0.2291905088883803,0.4246280613412683,0.4409857328145268,0.08590402848924424,-0.1692885957701387,0.2195009653176656,-0.01565357960316022,-0.2030890002663426,-0.5302573405545714
1660172565811239,-0.0678110933089191,0.8023193713282977,0.522285801480125,0.09073419989557813,-0.1659158379065374,0.2155634833308565,-0.0168645316962397,-0.2020949551344268,-0.5297428000334343
1660172565827223,-0.1192034790569925,1.090165560387579,0.3734798199435412,0.09724615191025665,-0.1636816574579131,0.2092998443642872,-0.01801206307250561,-0.2004634772851977,-0.5293961935709496
1660172565843208,-0.2066071564812697,0.9667505912870986,0.2976729991607536,0.1052006212634239,-0.1644978198803378,0.201708468802695,-0.0191109347108078,-0.1985834669312195,-0.529045928754041
1660172565859192,-0.2163729304951554,0.799389639124132,0.3607843137254898,0.1143113300580417,-0.1682356050860298,0.1928668275776524,-0.02019256163052347,-0.1969538481463148,-0.5284838041832929
1660172565875177,-0.1858548867017622,0.8197756923781183,0.4026550698100255,0.1241173383737907,-0.1738642933165143,0.1829266551545292,-0.02128124325903446,-0.1959049056857336,-0.5275781380445563
1660172565891162,-0.1527733272297245,0.8831311512932025,0.395696955825132,0.1338392459887101,-0.1803304399450565,0.1728985180199419,-0.02239149216224365,-0.1954395484430267,-0.5263328689853719
1660172565907146,-0.1414206149385824,0.899488822766461,0.3400320439459827,0.142290224763607,-0.1863777241704577,0.1641131555270911,-0.02353118910056608,-0.1953067819866905,-0.5248570626737956
1660172565923131,-0.1636377508201723,0.8179446097505148,0.3252613107499807,0.1479025054016536,-0.1904671671351989,0.1574998405492868,-0.02469789504306516,-0.1952110586869851,-0.5232872270429365
1660172565939115,-0.1367818722819867,0.7599603265430686,0.3844663157091635,0.148900181279213,-0.1913343682495095,0.153438302651804,-0.025874991003045,-0.1949472947473807,-0.5217415539284671
1660172565955100,-0.09234760051880686,0.8732433051041424,0.4276798657206076,0.1435730443048903,-0.1884869788143917,0.1516693841979749,-0.02703417395508417,-0.1944176202869975,-0.520319719091933
1660172565971084,-0.02887006942854953,1.135332265201801,0.4476997024490732,0.1306059761841844,-0.1819416842360198,0.1510692973080159,-0.02813831539516903,-0.1937045964120379,-0.5190777840056262
1660172565987069,0.09076066224154999,1.168657969024186,0.5449912260624092,0.1094542105581691,-0.1715414355204669,0.1500659877660322,-0.0291385285661299,-0.1930477775184165,-0.5180345327340332
1660172566003053,0.1923247119859619,1.14314488441291,0.6347142748149848,0.08066216698444009,-0.1563620273314538,0.1472467634605452,-0.02996648839838852,-0.1925880867445431,-0.5172555999853331
1660172566019038,0.05230792706187515,1.064286259250782,0.4678416113527124,0.04600747286662907,-0.134628456369379,0.1411370045616792,-0.03052360354399395,-0.192210048862464,-0.5168903757606773
1660172566035003,-0.09735255970092327,0.6195773250934611,0.4716258487830931,0.008183247617597776,-0.1058461175793665,0.1310840653218286,-0.03068702159118681,-0.1916484541871606,-0.5171105547419312
1660172566050988,0.05828946364538012,2.004608224612802,-0.04364080262455161,-0.03014162930744117,-0.07404130936919504,0.1190651002600322,-0.03036361589533593,-0.1906824171169693,-0.5180281534833728
1660172566066972,-0.02069123369192027,1.089433127336537,0.4351262684061954,-0.06644809392645078,-0.04630407927046493,0.1078453525584055,-0.02955619606403883,-0.1892239394333573,-0.5196658219749309
1660172566082957,-0.1681544213015944,0.8732433051041424,0.3660334172579534,-0.09751546802136231,-0.02723660971947902,0.09763002975164124,-0.02836041012020001,-0.1872152647300597,-0.5219966196795628
1660172566098941,-0.1705958648050658,0.900343327992676,0.3638361181048291,-0.1197484582902387,-0.01735936101167176,0.08726639334028403,-0.02690356640985996,-0.1845714406334428,-0.5249557737214402
1660172566114926,-0.09771877622644398,0.9745632104982072,0.4055848020141912,-0.1303613810837313,-0.01590689306499722,0.07687502395089053,-0.02530712073427648,-0.1813101555306525,-0.528387403860517
1660172566130910,-0.07171740291447337,1.055741206988632,0.392278934920272,-0.1280105882693501,-0.0220416574134684,0.06718137098279338,-0.02368479444833427,-0.1776951463766851,-0.5320083389053957
1660172566146895,-0.06073090714885154,1.103837644007019,0.3972838941023884,-0.1131487859316391,-0.03387670369174128,0.0580737027341854,-0.02213388791060018,-0.1741979501759101,-0.5354573560964344
1660172566162880,-0.06659037155718339,0.970046540016785,0.3726253147173262,-0.08826527432221243,-0.04803231379815034,0.04870565396728568,-0.02071139090473657,-0.1712658904187295,-0.5384137532402271
1660172566178864,-0.2951094834821086,0.1091935606927592,0.3517509727626456,-0.05752800646332848,-0.06083882353181904,0.03830688950007241,-0.01941900307500288,-0.1691294616868673,-0.5406872953997517
1660172566194849,-0.2411535820553903,0.3068284122987714,0.2765545128557259,-0.02596176707823557,-0.07034302596969194,0.02710258633048826,-0.01821730345185855,-0.1677645209489958,-0.5422408626576706
1660172566210833,-0.1380025940337224,0.7702143892576485,0.2920576791027694,0.001141609954391172,-0.07671403969060135,0.01647286674145791,-0.01706094413272573,-0.1669263423067473,-0.5431815076367952
1660172566226818,-0.07855344472419334,0.9695582513160907,0.3613946746013577,0.01875285452748525,-0.08037420715777517,0.00771521440976187,-0.01591939268266167,-0.1662720620084666,-0.5437192603627378
1660172566242802,-0.0386358434424352,0.98970016021973,0.4163271534294655,0.02303790959904827,-0.08056412062214427,0.00100052738199321,-0.01476565793279956,-0.1655287125506038,-0.544104377060184
1660172566258787,0.004333562218661768,0.9815213244831007,0.4472114137483789,0.01236694238010639,-0.07621104453521192,-0.004010388779033348,-0.01355938104136428,-0.1645889570703036,-0.5445745833371292
1660172566274771,0.06915388723582794,1.147539482719158,0.4313420309758147,-0.01218074361360844,-0.06728583051757424,-0.007265489647414979,-0.01225141449318185,-0.1634755475363742,-0.5453314863602565
1660172566290756,0.1460593575951785,1.354573891813534,0.4149843595025562,-0.04701042788672843,-0.05462446623202908,-0.008371820216352265,-0.01079996903588663,-0.1622845072401913,-0.5465198145518888
1660172566306740,0.2265049210345618,1.378133821622034,0.4718699931334402,-0.08674305009456119,-0.03904614375340747,-0.006639449087577378,-0.009179037636245571,-0.1611060463677408,-0.5482174728348903
1660172566322725,0.2927901121538108,1.258625162127108,0.4756542305638209,-0.1253183317159628,-0.02123694313974405,-0.00117899608435269,-0.007379339135492529,-0.1598613524400394,-0.550459973416546
1660172566338709,0.1152971694514378,0.96919203479057,0.386297398336767,-0.1572975815881643,-0.002259461800374663,0.008010007835615505,-0.005407245183886857,-0.1582999301907999,-0.5532378520059664
1660172566354675,0.01947051194018456,0.7161364156557566,0.4490424963759825,-0.179013831121207,0.01581012205418537,0.01945533918559931,-0.00328496497467563,-0.1561721323054487,-0.5564708172241088
1660172566370659,0.2833905546654458,0.3518730449378191,0.7608148317692836,-0.1890555419209675,0.02935991309474996,0.03133142419591674,-0.001060905524940357,-0.1533832941133063,-0.5600043371448356
1660172566386644,-0.01190203707942317,1.172808422980087,0.4433051041428246,-0.1878288637157554,0.03420700381047335,0.04223695436991272,0.00117544321631407,-0.1500227161692332,-0.5636395058255683
1660172566402629,-0.1752346074616615,0.8456549935149154,0.3660334172579534,-0.1767618879419019,0.02836654096611758,0.05070237349902927,0.00330334706060736,-0.1462874615707162,-0.5671767507420394
1660172566418613,-0.2534828717479209,0.6559548332951861,0.3963073167009998,-0.1579463651725558,0.01348019391411467,0.05524108298260462,0.005211510083571271,-0.1424430380617468,-0.5704359486472297
1660172566434598,-0.2544594491493095,0.7523918516823072,0.3653009842069119,-0.1339599685637801,-0.006787304545474958,0.05531061669969244,0.006833496165941324,-0.138779522489051,-0.5732711333928604
1660172566450582,-0.1766994735637444,0.9557640955214772,0.3579766536964977,-0.107572917085848,-0.02852523186742444,0.0516440797348366,0.008154563472689245,-0.1355479756988546,-0.5755858548818951
1660172566466567,-0.01605249103532458,1.050980392156863,0.451728084229801,-0.0816461115139103,-0.0476621237949048,0.04541958712538265,0.009207598606206176,-0.132919705252542,-0.5773405756317945
1660172566482551,-0.07183947508964694,0.4422064545662625,0.4507515068284125,-0.05896863959845852,-0.06039346119347769,0.03749418385072512,0.01007188925546603,-0.1309364839420742,-0.5785614405493357
1660172566498536,-0.07843137254901977,0.5902800030518041,0.3291676203555349,-0.04203512820207368,-0.06501088081579197,0.02865317746965007,0.01085833261546695,-0.1295042762392832,-0.5793383214792948
1660172566514520,-0.001770046540016779,0.9142595559624631,0.3090257114518957,-0.03313033092509256,-0.06261786108147967,0.01997297557073725,0.01167456666673353,-0.128449504111983,-0.5798106101485208
1660172566530505,0.03241016250858308,1.006424048218509,0.3560234988937205,-0.03415589060731465,-0.05534485815263443,0.01228612024567901,0.01259819728069111,-0.1275842400406013,-0.5801515453347738
1660172566546489,0.04486152437628732,0.9619897764553293,0.4041199359121084,-0.04591022741399192,-0.04463602706020059,0.005647577487338854,0.01367853316341193,-0.1267307012193536,-0.5805533432420733
1660172566562474,0.05194171053635444,0.9605249103532465,0.4185244525825897,-0.06750255880654768,-0.03159740433518646,-4.69775322861736e-05,0.01494743710968217,-0.1257842506982242,-0.5811933195428785
1660172566578458,0.09869535362783211,1.106767376211184,0.434393835355154,-0.09623731117713082,-0.01781007223020617,-0.00421590478073234,0.01641627461262707,-0.1247792602202561,-0.582194056986035
1660172566594443,0.1475242236972614,1.255695429922942,0.4110780498970019,-0.127878210739482,-0.004971231979607383,-0.005741864569859876,0.01806693291269292,-0.123753792704113,-0.5836233057706147
1660172566610427,0.2503089951934081,1.26485084306096,0.4712596322575724,-0.15729451568449,0.005867322913159213,-0.003436309818395883,0.01985305867287808,-0.1226598196815764,-0.5854897464156918
1660172566626412,0.2300450141145953,1.158159761959259,0.4655222400244146,-0.1794470390702716,0.01429076984776335,0.003789359049209282,0.02170905273817337,-0.1214587563332674,-0.5877170610858141
1660172566642397,0.08465705348287145,0.9816433966582743,0.3727473868924998,-0.1904783059554963,0.01981502696581251,0.01645292490472343,0.02355667932233501,-0.1201639616712378,-0.5901474471552333
1660172566658381,0.007385366598001042,0.7195544365606166,0.4082703898680098,-0.1885652396559747,0.02142564018986319,0.03394482937017491,0.02530769558593209,-0.1187726481199262,-0.5925824480345003
1660172566674347,0.124330510414282,0.7265125505455101,0.642038605325399,-0.1741853036663606,0.01786379599432824,0.05461320806074371,0.02686715287485653,-0.1172296788603696,-0.5948263041421091
1660172566690331,0.1475242236972614,-0.07501335164415979,0.7743648432135499,-0.1497071475849762,0.008240511620492557,0.0762477690886029,0.02814065838849976,-0.1155134718740942,-0.5967057875166524
1660172566706315,-0.05938811322194226,0.5795376516365298,0.5071488517586022,-0.1186192289039553,-0.007327859704830865,0.09657601618027545,0.02904637473705746,-0.1137434333375515,-0.5980765579019277
1660172566722299,-0.1864652475776301,0.7809567406729228,0.382024872205692,-0.08484876752413387,-0.02721314951124981,0.1136549093709303,0.02953138140075086,-0.1121573506545758,-0.5988386539250486
1660172566738283,-0.2232089723048754,0.7578850995651178,0.3339284351873042,-0.05219561499107843,-0.04849549720250736,0.1261104436677415,0.02958749847449299,-0.1109195788446006,-0.598967347034037
1660172566754267,-0.1200579842832075,0.941603723201343,0.3578545815213241,-0.02365346067259653,-0.06803633125659443,0.1334388372059993,0.02925599331438904,-0.1100372618666376,-0.5985152068158277
1660172566770251,0.003723201342793914,1.077836270695048,0.3899595635919741,-0.0009737125102317369,-0.08324346536454082,0.1360581824553368,0.02861814657897102,-0.1094696356916182,-0.5975759285878027
1660172566786235,0.1510643167772949,0.8354009308003354,0.5144731822690165,0.015262834026325,-0.09198989439532902,0.1346939319401242,0.02778333614314075,-0.1091718283636977,-0.5962576956045853
1660172566802219,-0.0508430609597923,0.5634241245136185,0.4075379568169684,0.02536554197388359,-0.09320041967163804,0.1300106766632177,0.02687755355486606,-0.1090650385501988,-0.5946724598254817
